name,time,accel_x,accel_y,accel_z,alt,bme280_h,bme280_p,bme280_t,lat,lon,nc05,nc1,nc10,nc25,nc4,ntc,p1,p10,p25,p4,t_offset,typical_part_size
cansat,1622288297165002150,0,-1,9,0,36.65,101520.78,28.06,0,0,9.337798,11.535925,12.114688,12.015105,12.099492,27.6568,1.509046,2.456979,2.032664,2.386259,188,0.690182
cansat,1622288298163473817,0,-1,9,0,37.17,101519.09,28.07,0,0,9.003845,11.120668,11.676597,11.580954,11.661995,27.597624,1.454506,2.364996,1.957584,2.297094,189,0.690182
cansat,1622288299163140275,0,-1,10,0,36.75,101520.89,28.06,0,0,8.77173,10.831098,11.370404,11.277634,11.356235,27.597624,1.416396,2.299619,1.904563,2.233776,190,0.688124
cansat,1622288300166689858,0,0,9,0,36.62,101521.79,28.04,0,0,8.539075,10.540996,11.063751,10.973838,11.050012,27.716154,1.378228,2.234303,1.851541,2.170508,191,0.686742
cansat,1622288301163514493,0,-1,10,0,36.98,101521.88,28.05,0,0,8.436473,10.411264,10.925293,10.836894,10.911778,27.538624,1.361014,2.202753,1.826567,2.140055,192,0.685425
cansat,1622288302163389857,0,0,10,0,37.3,101522.07,28.04,0,0,8.269387,10.202205,10.70378,10.617534,10.690587,27.6568,1.33345,2.154752,1.787855,2.093601,193,0.685425
cansat,1622288303163316106,0,0,10,0,36.79,101522.19,28,0,0,8.179136,10.088612,10.582926,10.497938,10.569921,27.421151,1.318419,2.127798,1.76635,2.067556,194,0.686071
cansat,1622288315162043862,0,0,10,0,37.4,101523.77,28.16,0,0,9.052998,11.154169,11.691514,11.599179,11.677355,27.835399,1.456661,2.336306,1.944152,2.270946,206,0.686256
cansat,1622288316162270320,1,-1,10,0,36.9,101523.75,28.12,0,0,9.067585,11.171092,11.708467,11.616131,11.694304,28.197504,1.458785,2.338463,1.946353,2.27311,207,0.687292
cansat,1622288317162379018,0,-1,10,0,36.68,101524.57,28.1,0,0,9.158737,11.283314,11.826031,11.732777,11.811728,28.197504,1.473434,2.361856,1.965852,2.295855,208,0.690538
cansat,1622288318162022246,0,-1,10,0,36.78,101523.29,28.08,0,0,9.226254,11.366588,11.913379,11.819426,11.898969,28.258504,1.484316,2.37941,1.980427,2.312911,209,0.690169
cansat,1622288319162343548,0,0,10,0,37.98,101521.16,28.12,0,0,9.317337,11.47845,12.03036,11.935528,12.015816,28.258504,1.498894,2.402364,1.999668,2.335248,210,0.687593
cansat,1622288320162132975,1,0,10,0,38.24,101520.17,28.17,0,0,9.383136,11.559453,12.115216,12.019723,12.10057,28.319691,1.509467,2.419242,2.013738,2.351657,211,0.688815
cansat,1622288321162263599,0,0,9,0,40.23,101520.84,28.21,0,0,9.513467,11.719998,12.283472,12.186653,12.268621,28.197504,1.530431,2.452826,2.041698,2.384303,212,0.689877
cansat,1622288322162073651,0,-1,10,0,42.18,101523.23,28.23,0,0,9.65135,11.890491,12.462629,12.364319,12.447553,28.136692,1.552746,2.489336,2.071846,2.419753,213,0.692235
cansat,1622288323162179015,0,-1,10,0,42.01,101521.62,28.25,0,0,9.70936,11.962359,12.538254,12.439297,12.523079,28.136692,1.562164,2.504908,2.084652,2.434864,214,0.690841
cansat,1622288327162036410,0,-1,10,0,37.51,101523.65,28.29,0,0,9.587179,11.813267,12.38306,12.285145,12.368048,28.258504,1.542812,2.47559,2.059697,2.406273,218,0.688759
cansat,1622288328162174118,0,-1,10,0,36.89,101524.3,28.31,0,0,9.646627,11.886086,12.459067,12.360607,12.443971,27.775686,1.552287,2.490279,2.072085,2.420579,219,0.684622
cansat,1622288329161902607,0,-1,10,0,36.29,101526.26,28.25,0,0,9.726772,11.984214,12.56146,12.46227,12.54625,27.895292,1.56505,2.510016,2.088747,2.439804,220,0.686407
cansat,1622288330161879638,0,0,10,0,36.01,101526.76,28.25,0,0,9.737456,11.9966,12.573865,12.474673,12.558653,27.955367,1.566604,2.511586,2.090354,2.441379,221,0.685029
cansat,1622288332161910783,0,-1,10,0,35.9,101527.28,28.29,0,0,9.875235,12.163629,12.746903,12.646691,12.731528,27.775686,1.588194,2.542972,2.117524,2.472063,223,0.683831
cansat,1622288333161966147,0,0,10,0,35.91,101529.3,28.28,0,0,9.99269,12.306431,12.895157,12.794016,12.879634,28.136692,1.606686,2.570357,2.141051,2.498805,224,0.681645
cansat,1622288334161734688,0,-1,10,0,35.93,101526.94,28.29,0,0,10.243861,12.614708,13.217397,13.113862,13.201506,27.895292,1.646847,2.633357,2.193936,2.56012,225,0.684396
cansat,1622288335161838802,0,0,10,0,35.96,101526.65,28.3,0,0,10.387395,12.790831,13.401462,13.296565,13.385359,27.716154,1.669788,2.669288,2.224117,2.595092,226,0.685416
cansat,1622288336162097760,0,0,10,0,35.93,101525.44,28.32,0,0,10.613323,13.068727,13.692395,13.585259,13.675947,27.775686,1.706041,2.726876,2.272219,2.651099,227,0.685423
cansat,1622288337161732239,0,0,10,0,35.92,101527.19,28.35,0,0,10.77484,13.268121,13.901686,13.792849,13.884978,27.895292,1.732113,2.769154,2.30725,2.692169,228,0.68747
cansat,1622288338161851249,0,0,10,0,35.97,101527.61,28.34,0,0,10.882967,13.402078,14.042644,13.932599,14.025753,28.258504,1.749666,2.798181,2.331122,2.720337,229,0.688846
cansat,1622288339161752238,0,0,10,0,36.03,101527.22,28.35,0,0,11.031317,13.58664,14.237426,14.125618,14.220268,27.895292,1.773915,2.839188,2.364559,2.760082,230,0.690541
cansat,1622288340162116873,0,0,10,0,36.12,101524.55,28.35,0,0,11.255366,13.863647,14.528495,14.414267,14.510968,27.955367,1.810169,2.898474,2.413523,2.817647,231,0.689532
cansat,1622288341162049217,0,0,10,0,36.15,101526.41,28.37,0,0,11.580175,14.265034,14.950103,14.832396,14.932046,28.076066,1.862685,2.984113,2.48433,2.900815,232,0.690233
cansat,1622288342162225414,0,0,10,0,36.1,101526.94,28.38,0,0,11.812407,14.552593,15.252583,15.132304,15.234136,28.076066,1.900356,3.04623,2.535469,2.961103,233,0.689871
cansat,1622288343162099685,0,-1,10,0,36.16,101525.29,28.39,0,0,12.095079,14.902836,15.621161,15.497725,15.602235,27.955367,1.946256,3.122181,2.597913,3.034801,234,0.691961
cansat,1622288344162222601,0,-1,10,0,36.27,101524.78,28.4,0,0,12.32983,15.194899,15.929404,15.803177,15.910057,27.835399,1.984629,3.187085,2.650832,3.097708,235,0.694322
cansat,1622288345161931872,0,0,10,0,36.27,101525.25,28.43,0,0,12.396178,15.279342,16.019932,15.892646,16.000427,27.895292,1.995878,3.208334,2.667473,3.118189,236,0.694322
cansat,1622288346161904423,0,0,10,0,36.15,101526.19,28.4,0,0,12.411338,15.300196,16.043411,15.915666,16.023842,27.895292,1.99878,3.215569,2.672655,3.125082,237,0.693635
cansat,1622288348162234683,0,-1,10,0,35.93,101526.03,28.39,0,0,12.322653,15.196052,15.938076,15.810513,15.918548,27.775686,1.9856,3.20052,2.658154,3.110124,239,0.696712
cansat,1622288349162606297,0,-1,10,0,35.99,101526.55,28.36,0,0,12.447004,15.352798,16.105007,15.975679,16.085217,28.076066,2.006359,3.238009,2.687988,3.146338,240,0.698
cansat,1622288350162165932,0,0,10,0,35.87,101527.06,28.34,0,0,12.636015,15.5891,16.355249,16.223511,16.335098,27.775686,2.0375,3.292023,2.731614,3.198621,241,0.699347
cansat,1622288351161925411,0,-1,10,0,35.8,101526.2,28.35,0,0,12.747747,15.729723,16.504854,16.371561,16.48447,27.955367,2.056107,3.325379,2.75823,3.230852,242,0.700372
cansat,1622288352162038223,0,0,10,0,35.74,101526.03,28.37,0,0,12.880784,15.896555,16.681904,16.546841,16.661255,28.197504,2.078133,3.364176,2.789388,3.268376,243,0.701033
cansat,1622288353161757389,0,-1,10,0,35.93,101526.38,28.38,0,0,12.987933,16.030638,16.823986,16.68754,16.803131,28.258504,2.095813,3.394985,2.814229,3.298191,244,0.698919
cansat,1622288354161745879,0,0,10,0,36.29,101525.39,28.35,0,0,13.030242,16.08419,16.881182,16.744104,16.860231,28.258504,2.102923,3.408081,2.824577,3.310829,245,0.697694
cansat,1622288355161755722,0,0,10,0,36.39,101527.66,28.33,0,0,13.019877,16.072073,16.868967,16.731903,16.848022,27.895292,2.101394,3.406403,2.822929,3.309156,246,0.694881
cansat,1622288356160968638,0,0,10,0,36.09,101525.7,28.32,0,0,12.923939,15.954148,16.745571,16.609447,16.724771,27.835399,2.086017,3.382075,2.802575,3.28549,247,0.69522
cansat,1622288357161157232,0,0,10,0,35.25,101523.7,28.29,0,0,12.931097,15.962434,16.753859,16.617737,16.733057,27.955367,2.087056,3.383107,2.80364,3.286529,248,0.692089
cansat,1622288358161201867,0,-1,10,0,34.74,101523.58,28.24,0,0,12.850393,15.862187,16.648176,16.512991,16.627516,27.955367,2.073897,3.361037,2.785589,3.265128,249,0.692281
cansat,1622288359160919262,0,0,9,0,34.71,101523.95,28.19,0,0,12.656603,15.622395,16.396065,16.263002,16.375729,27.775686,2.042498,3.309458,2.743063,3.215058,250,0.692281
cansat,1622288360160859939,0,0,10,0,34.79,101523.23,28.2,0,0,12.415879,15.324603,16.083038,15.952598,16.063101,27.716154,2.00351,3.245508,2.690308,3.152974,251,0.692626
cansat,1622288361161008636,0,0,10,0,34.79,101522.97,28.2,0,0,12.182399,15.035495,15.778927,15.651071,15.759383,27.4798,1.965637,3.183054,2.638892,3.092358,252,0.691953
cansat,1622288362160751292,0,-1,10,0,35.03,101523.52,28.15,0,0,11.956954,14.756248,15.485126,15.359776,15.465963,27.304373,1.929048,3.122617,2.589169,3.033707,253,0.693405
cansat,1622288363160913063,0,-1,10,0,35.35,101524.71,28.09,0,0,11.909102,14.697591,15.423866,15.298964,15.404772,27.362676,1.921412,3.110725,2.579158,3.02213,254,0.694683
cansat,1622288364160766656,0,-1,10,0,35.43,101524.06,28.06,0,0,11.921022,14.713242,15.440994,15.315832,15.421862,27.362676,1.923535,3.115278,2.582574,3.026494,255,0.695633
cansat,1622288365160814416,0,-1,10,0,35.54,101524.28,28.04,0,0,12.02522,14.842008,15.576249,15.449971,15.556949,27.015419,1.940383,3.142756,2.605292,3.053177,256,0.695415
cansat,1622288366160959624,0,-1,10,0,35.55,101523.31,28.04,0,0,12.160783,15.008614,15.750566,15.622963,15.731059,27.130493,1.962106,3.177094,2.634029,3.086582,257,0.691571
cansat,1622288367160774988,0,-1,10,0,35.52,101522.16,28.04,0,0,12.2766,15.151185,15.899912,15.771147,15.880227,27.188283,1.980714,3.206792,2.65879,3.115457,258,0.694031
cansat,1622288368163300092,0,-1,10,0,35.4,101522.83,28.04,0,0,12.376059,15.273144,16.027311,15.897615,16.007484,27.246242,1.996594,3.231569,2.679633,3.139579,259,0.693703
cansat,1622288369162846706,0,0,10,0,35.42,101523.67,28.04,0,0,12.375071,15.271656,16.025547,15.895899,16.005726,27.362676,1.996377,3.230896,2.679178,3.138941,260,0.694724
cansat,1622288370163007227,0,0,10,0,35.51,101523.7,28.03,0,0,12.336183,15.223077,15.974133,15.844976,15.954385,27.304373,1.989979,3.219847,2.670239,3.128244,261,0.694045
cansat,1622288371163179466,0,-1,10,0,35.72,101523.21,28.03,0,0,12.224107,15.084155,15.827896,15.699998,15.808339,27.362676,1.971768,3.189647,2.645431,3.098944,262,0.69477
cansat,1622288372157715195,0,-1,10,0,35.72,101523.21,28.03,0,0,12.224107,15.084155,15.827896,15.699998,15.808339,27.362676,1.971768,3.189647,2.645431,3.098944,262,0.69477
cansat,1622288373162383528,0,-1,10,0,35.81,101522.13,28.03,0,0,11.992976,14.796509,15.524249,15.399113,15.50511,27.304373,1.933968,3.125609,2.593251,3.036882,264,0.69259
cansat,1622288374162263371,0,-1,10,0,35.88,101522.03,28.02,0,0,11.754311,14.500889,15.213223,15.09074,15.194486,27.362676,1.895233,3.06163,2.540612,2.974792,265,0.692589
cansat,1622288375162820818,0,-1,10,0,35.92,101522.21,28.04,0,0,11.527884,14.221337,14.919777,14.799684,14.901404,27.4798,1.858679,3.002321,2.491479,2.917179,266,0.694626
cansat,1622288376161788579,0,0,10,0,35.96,101521.85,28.04,0,0,11.229223,13.852696,14.532883,14.41593,14.51499,27.421151,1.810483,2.924231,2.426754,2.841317,267,0.694626
cansat,1622288377161998682,0,0,10,0,36,101523.28,28.05,0,0,11.04616,13.626197,14.294765,14.179813,14.277178,27.362676,1.780826,2.875542,2.386602,2.794051,268,0.694488
cansat,1622288378161860661,0,0,10,0,35.68,101523.66,28.02,0,0,10.830245,13.359141,14.014079,13.901473,13.996848,27.421151,1.745866,2.818252,2.339324,2.73843,269,0.694842
cansat,1622288379162694723,0,0,10,0,35.45,101524.7,28,0,0,10.718057,13.219814,13.867217,13.755911,13.850183,27.716154,1.72758,2.787615,2.314255,2.70872,270,0.697334
cansat,1622288380162717483,0,-1,10,0,35.53,101525,27.99,0,0,10.520125,12.974804,13.609552,13.500425,13.592851,27.775686,1.69549,2.734792,2.270738,2.657448,271,0.697334
cansat,1622288381161090452,0,-1,10,0,35.53,101523.53,28,0,0,10.425263,12.857054,13.485481,13.377443,13.468945,27.775686,1.680041,2.70898,2.249594,2.632415,272,0.698398
cansat,1622288382160963420,0,0,10,0,35.47,101522.86,28.01,0,0,10.28717,12.685839,13.305217,13.198738,13.288916,27.775686,1.657594,2.671702,2.218987,2.596248,273,0.696987
cansat,1622288383160772899,0,-1,10,0,35.49,101524.95,28.01,0,0,10.07256,12.420337,13.026117,12.92198,13.010173,28.015624,1.622832,2.614666,2.171942,2.540877,274,0.696987
cansat,1622288384160687169,0,0,10,0,35.23,101523.27,27.98,0,0,9.840854,12.133758,12.724915,12.623296,12.709353,27.775686,1.585317,2.553193,2.121211,2.481195,275,0.69734
cansat,1622288385160741856,0,-1,10,0,35.22,101523.02,27.96,0,0,9.554858,11.780325,12.353665,12.255112,12.338573,27.716154,1.539074,2.47777,2.058856,2.40795,276,0.69734
cansat,1622288386160717846,0,-1,10,0,35.35,101523.71,27.99,0,0,9.355204,11.533924,12.095094,11.998633,12.080319,27.775686,1.506863,2.425625,2.015619,2.357289,277,0.69795
cansat,1622288387161274668,0,-1,10,0,35.29,101525.44,27.99,0,0,9.27001,11.429252,11.985595,11.889963,11.970949,27.716154,1.493217,2.404085,1.997583,2.336334,278,0.701057
cansat,1622288388161095657,0,0,10,0,35.12,101524.46,28,0,0,9.108258,11.230157,11.777059,11.683048,11.762662,27.716154,1.467233,2.362648,1.963023,2.296043,279,0.701057
cansat,1622288389161118730,0,0,10,0,35.04,101524.51,28.01,0,0,8.971771,11.061917,11.60066,11.508051,11.586477,27.775686,1.445256,2.327311,1.933647,2.261699,280,0.699995
cansat,1622288390160393938,0,0,10,0,35.12,101525.46,28,0,0,8.771494,10.815023,11.341771,11.251224,11.327906,27.362676,1.413002,2.275421,1.890518,2.21127,281,0.699995
cansat,1622288391160718937,0,0,10,0,35.14,101525.81,28.01,0,0,8.56443,10.559577,11.073776,10.985387,11.060241,27.362676,1.379616,2.221488,1.845763,2.158866,282,0.698579
cansat,1622288392159579822,0,-1,10,0,35.16,101524.48,28,0,0,8.396588,10.352366,10.856275,10.769656,10.843009,27.362676,1.352522,2.177542,1.809353,2.116177,283,0.699129
cansat,1622288393160492530,0,0,10,0,35.15,101522.13,28.02,0,0,8.347431,10.291492,10.792241,10.706166,10.779058,27.775686,1.344547,2.164388,1.798524,2.10341,284,0.699395
cansat,1622288394161127842,0,0,9,0,35.13,101522.27,28.01,0,0,8.266905,10.19192,10.687606,10.602402,10.674556,27.4798,1.331514,2.143062,1.780916,2.082704,285,0.700123
cansat,1622288395159911280,0,-1,10,0,35.06,101523.91,28.02,0,0,8.319736,10.256174,10.75433,10.668705,10.741212,27.304373,1.339836,2.155413,1.791517,2.094763,286,0.699361
cansat,1622288396159556019,0,0,10,0,35.04,101521.05,28,0,0,8.38064,10.330869,10.832363,10.746168,10.819159,27.421151,1.349563,2.170602,1.80429,2.109549,287,0.699979
cansat,1622288397160398518,0,-1,10,0,35.08,101521.08,27.99,0,0,8.517504,10.498758,11.007789,10.9203,10.994384,27.362676,1.371427,2.204791,1.833026,2.142829,288,0.698074
cansat,1622288398160154456,0,0,10,0,35.15,101520.63,27.97,0,0,8.714818,10.740561,11.260264,11.170947,11.246576,27.130493,1.402898,2.253713,1.874241,2.190467,289,0.694173
cansat,1622288399160017841,0,0,10,0,35.2,101520.5,27.97,0,0,8.873322,10.93442,11.462391,11.371659,11.448482,27.246242,1.428097,2.292423,1.907008,2.228187,290,0.695225
cansat,1622288400159564090,0,0,10,0,35.32,101518.89,27.96,0,0,8.956168,11.034901,11.566525,11.475172,11.552516,27.246242,1.441089,2.31137,1.923388,2.246705,291,0.693822
cansat,1622288401160103204,0,0,10,0,35.27,101519.86,27.94,0,0,9.10511,11.216659,11.755731,11.663106,11.741523,27.130493,1.464681,2.347126,1.95382,2.281574,292,0.690646
cansat,1622288402159548308,0,-1,10,0,35.3,101517.78,27.92,0,0,9.347949,11.514759,12.067367,11.972421,12.052801,27.188283,1.503521,2.40811,2.004993,2.340923,293,0.690888
cansat,1622288403159547318,0,0,10,0,35.56,101518.18,27.93,0,0,9.494173,11.693806,12.254208,12.157928,12.239435,27.188283,1.526811,2.444143,2.035407,2.37602,294,0.691619
cansat,1622288404159716172,0,0,10,0,35.48,101519.67,27.92,0,0,9.645991,11.87985,12.448464,12.350777,12.433473,27.304373,1.551025,2.481781,2.067116,2.412669,295,0.691427
cansat,1622288405159845234,0,0,10,0,35.48,101521.62,27.9,0,0,9.715477,11.964473,12.536425,12.438168,12.521344,27.4798,1.561995,2.498199,2.081161,2.428692,296,0.692159
cansat,1622288406159198515,0,0,10,0,35.42,101519.75,27.89,0,0,9.75991,12.018592,12.592679,12.494059,12.57754,27.304373,1.569011,2.508703,2.090145,2.438942,297,0.693901
cansat,1622288407159272056,0,0,10,0,35.43,101521.24,27.89,0,0,9.825415,12.099771,12.678121,12.578765,12.66287,27.421151,1.579651,2.52633,2.104631,2.456046,298,0.696934
cansat,1622288408159183306,0,0,10,0,35.47,101522.59,27.91,0,0,9.908151,12.202346,12.786114,12.685824,12.770721,27.775686,1.593099,2.548654,2.122962,2.477704,299,0.698613
cansat,1622288409159209660,0,0,10,0,35.3,101521.44,27.91,0,0,10.046352,12.373726,12.966571,12.864717,12.950942,27.4798,1.615571,2.586003,2.153618,2.513938,300,0.699952
cansat,1622288410159310909,0,-1,10,0,35.16,101521.08,27.92,0,0,10.143414,12.494123,13.093371,12.990414,13.077575,27.4798,1.63136,2.612288,2.175178,2.539435,301,0.699262
cansat,1622288411159280128,0,0,10,0,34.89,101521.06,27.93,0,0,10.204988,12.571597,13.175778,13.071967,13.159855,27.4798,1.641609,2.630638,2.189828,2.557169,302,0.701293
cansat,1622288412159518252,0,-1,10,0,34.63,101520.87,27.93,0,0,10.364797,12.771229,13.387068,13.281241,13.370842,27.775686,1.667904,2.67606,2.22657,2.601145,303,0.705791
cansat,1622288413159558929,0,0,10,0,34.49,101520.2,27.93,0,0,10.390115,12.80505,13.424476,13.318022,13.408161,27.775686,1.672536,2.686607,2.234334,2.611227,304,0.705791
cansat,1622288414159720335,0,-1,10,0,34.44,101521.42,27.95,0,0,10.349089,12.7569,13.375799,13.269426,13.359503,27.716154,1.666445,2.679689,2.227651,2.604348,305,0.706518
cansat,1622288415159446220,0,-1,10,0,34.63,101518.15,27.97,0,0,10.254776,12.642855,13.25787,13.152154,13.241677,27.362676,1.651728,2.658646,2.209308,2.583755,306,0.707247
cansat,1622288416159781167,0,-1,10,0,34.56,101519.78,27.97,0,0,10.160455,12.529025,13.140336,13.035247,13.124247,27.716154,1.637058,2.637951,2.191166,2.563485,307,0.708993
cansat,1622288417159752521,0,0,10,0,34.51,101518.33,27.99,0,0,10.067004,12.416486,13.024316,12.919814,13.008322,28.258504,1.622575,2.617809,2.173402,2.54374,308,0.71074
cansat,1622288418159490437,0,0,10,0,34.55,101519.61,28,0,0,9.975374,12.306181,12.910632,12.806699,12.894732,27.775686,1.608382,2.598127,2.156023,2.524442,309,0.71031
cansat,1622288419159585385,0,0,10,0,34.55,101520.21,28.01,0,0,9.886887,12.199054,12.799764,12.696466,12.783965,27.6568,1.594548,2.578195,2.138704,2.504945,310,0.707428
cansat,1622288420159631895,0,-1,10,0,34.44,101520.91,28.02,0,0,9.92981,12.253413,12.857839,12.753897,12.841946,27.597624,1.601768,2.591524,2.149227,2.517807,311,0.702732
cansat,1622288421159695124,0,-1,10,0,34.34,101520.97,28.02,0,0,9.993383,12.332789,12.94182,12.837082,12.925808,27.6568,1.61222,2.609532,2.163808,2.535243,312,0.702343
cansat,1622288422159512571,0,-1,10,0,34.25,101520.26,28.02,0,0,10.03055,12.37908,12.990715,12.885529,12.974634,27.4798,1.618306,2.619887,2.172232,2.545277,313,0.699505
cansat,1622288423159544550,0,0,10,0,34.26,101521.3,28.01,0,0,9.960285,12.292763,12.900432,12.795924,12.884456,27.775686,1.607054,2.602146,2.15737,2.528015,314,0.699505
cansat,1622288424159259237,0,0,10,0,34.29,101519.21,28,0,0,9.846435,12.152534,12.753478,12.650126,12.73768,27.304373,1.588745,2.572829,2.132959,2.499517,315,0.699847
cansat,1622288425160958456,0,0,10,0,34.3,101519.1,28.02,0,0,9.782912,12.074967,12.672698,12.569897,12.656985,27.597624,1.578673,2.557508,2.119938,2.484578,316,0.700465
cansat,1622288426158661789,0,0,10,0,34.39,101520.12,28.01,0,0,9.718532,11.996466,12.591027,12.488767,12.5754,27.6568,1.568488,2.54215,2.10684,2.469597,317,0.700067
cansat,1622288427158778872,0,-1,10,0,34.31,101521.27,28,0,0,9.611919,11.865548,12.454131,12.352896,12.438662,27.716154,1.551427,2.515306,2.084334,2.443476,318,0.698651
cansat,1622288428158483767,0,0,10,0,34.31,101523.08,28.02,0,0,9.472203,11.693497,12.273861,12.174037,12.258609,27.775686,1.528966,2.479393,2.054412,2.408562,319,0.697239
cansat,1622288429158276840,0,0,10,0,34.28,101523.79,28.03,0,0,9.435169,11.647725,12.22578,12.126354,12.210588,27.716154,1.522977,2.469619,2.046334,2.399071,320,0.697048
cansat,1622288430159112829,0,0,10,0,34.16,101523.73,28.02,0,0,9.353656,11.546849,12.119711,12.02118,12.104655,27.4798,1.509767,2.447904,2.028435,2.377991,321,0.695641
cansat,1622288431159008870,0,-1,10,0,34.09,101522.01,28.01,0,0,9.279539,11.45494,12.022931,11.925239,12.008003,27.775686,1.497716,2.427872,2.011994,2.358558,322,0.696137
cansat,1622288432159093818,0,0,10,0,34.02,101523.48,28.02,0,0,9.169588,11.318631,11.879436,11.782981,11.864694,27.895292,1.479846,2.398219,1.98764,2.329789,323,0.694732
cansat,1622288433159045640,0,0,10,0,33.92,101522.38,28.03,0,0,9.157687,11.304853,11.865652,11.769195,11.850913,27.775686,1.478119,2.396498,1.985868,2.328059,324,0.698812
cansat,1622288434158973973,0,0,10,0,33.86,101523.1,28.02,0,0,9.141223,11.285666,11.846361,11.749918,11.831627,27.716154,1.475704,2.393931,1.983307,2.325493,325,0.700147
cansat,1622288435158914650,0,0,10,0,33.84,101521.71,28.04,0,0,9.121161,11.262268,11.822821,11.726396,11.808093,27.716154,1.472756,2.39077,1.980168,2.322335,326,0.70151
cansat,1622288436158941056,0,-1,10,0,33.86,101523.31,28.04,0,0,9.141735,11.28855,11.851063,11.754296,11.836285,27.775686,1.476265,2.397504,1.985412,2.328821,327,0.700717
cansat,1622288437159026003,0,-1,10,0,33.91,101524.31,28.05,0,0,9.19514,11.35485,11.920933,11.823552,11.906061,27.955367,1.484964,2.412054,1.997326,2.342932,328,0.698604
cansat,1622288438159736367,0,-1,10,0,33.95,101522.57,28.05,0,0,9.360275,11.558254,12.13409,12.035033,12.118961,27.955367,1.511523,2.454578,2.032736,2.38427,329,0.69371
cansat,1622288439158971054,0,0,10,0,33.98,101523.81,28.06,0,0,9.486142,11.712791,12.295667,12.195403,12.280352,27.835399,1.53166,2.486232,2.059285,2.415073,330,0.690919
cansat,1622288440158989387,0,-1,10,0,34,101521.23,28.07,0,0,9.70603,11.983721,12.579653,12.477144,12.563993,28.076066,1.567042,2.542987,2.106512,2.47024,331,0.690904
cansat,1622288441159705220,0,0,10,0,34.04,101522.31,28.08,0,0,9.787187,12.083373,12.683854,12.580565,12.668075,27.835399,1.580028,2.563413,2.12364,2.490116,332,0.690904
cansat,1622288442158952564,0,-1,10,0,34.01,101521.09,28.08,0,0,9.797834,12.095915,12.696568,12.593253,12.680783,27.895292,1.581619,2.565278,2.125414,2.491966,333,0.691091
cansat,1622288443158656626,0,0,10,0,34.03,101522.14,28.09,0,0,9.879426,12.195672,12.800553,12.696514,12.784656,28.076066,1.594583,2.585152,2.142251,2.511333,334,0.691338
cansat,1622288444158733761,0,-1,10,0,34.04,101520.71,28.09,0,0,9.889594,12.207205,12.811899,12.707898,12.796005,28.015624,1.596007,2.586254,2.143552,2.51247,335,0.691675
cansat,1622288445158663083,0,0,10,0,34.12,101520.85,28.11,0,0,9.926303,12.252095,12.858698,12.754369,12.842752,27.835399,1.601842,2.595209,2.151135,2.521196,336,0.692321
cansat,1622288446158830896,0,-1,10,0,34.24,101521.14,28.13,0,0,9.984584,12.323711,12.93362,12.828724,12.917588,27.895292,1.611179,2.609956,2.163481,2.535542,337,0.692286
cansat,1622288447159761312,0,0,10,0,34.32,101521.84,28.14,0,0,10.145398,12.521596,13.14085,13.034349,13.124572,27.835399,1.637,2.651072,2.197793,2.575524,338,0.68986
cansat,1622288448159877041,0,-1,10,0,34.34,101522.19,28.15,0,0,10.259332,12.661824,13.287724,13.18008,13.271268,28.258504,1.655301,2.680246,2.222127,2.603892,339,0.689496
cansat,1622288449158665322,0,0,10,0,34.33,101524.48,28.16,0,0,10.37554,12.806107,13.439781,13.330798,13.423124,27.835399,1.674234,2.711925,2.248062,2.634614,340,0.692576
cansat,1622288450159415529,0,-1,10,0,34.37,101522.79,28.16,0,0,10.450759,12.899972,13.539053,13.429137,13.522256,27.775686,1.686589,2.733151,2.265268,2.655171,341,0.69221
cansat,1622288451158751310,0,-1,10,0,34.38,101521.69,28.18,0,0,10.449745,12.899582,13.539285,13.429258,13.522472,27.835399,1.686609,2.7342,2.265811,2.656135,342,0.692547
cansat,1622288452158457300,0,-1,10,0,34.38,101522.45,28.19,0,0,10.556165,13.032775,13.680445,13.569039,13.663426,28.136692,1.704173,2.764838,2.290505,2.685782,343,0.694431
cansat,1622288453158422560,0,0,10,0,34.37,101522.2,28.19,0,0,10.579373,13.062916,13.71319,13.601331,13.696105,27.775686,1.708236,2.77319,2.296858,2.6938,344,0.693031
cansat,1622288454158268028,0,0,10,0,34.37,101521.41,28.2,0,0,10.535013,13.009304,13.657773,13.54622,13.640738,27.955367,1.70132,2.763337,2.288257,2.684156,345,0.691634
cansat,1622288455158285215,0,0,10,0,34.34,101520.01,28.21,0,0,10.936057,13.506353,14.180952,14.064897,14.163232,27.835399,1.766472,2.871307,2.376974,2.788916,346,0.691253
cansat,1622288456158323704,0,0,10,0,34.32,101519.9,28.21,0,0,11.236465,13.879104,14.573614,14.454125,14.555375,27.955367,1.815365,2.952838,2.44381,2.867999,347,0.689513
cansat,1622288457158631725,0,-1,10,0,34.29,101518.23,28.23,0,0,11.484391,14.186359,14.897007,14.774738,14.878345,28.258504,1.855637,3.019554,2.498637,2.932734,348,0.687047
cansat,1622288458158310110,0,0,10,0,34.29,101521.05,28.24,0,0,11.57018,14.293306,15.010037,14.886718,14.991218,28.258504,1.869706,3.043602,2.518167,2.956028,349,0.687047
cansat,1622288459157628755,0,-1,10,0,34.33,101520.17,28.26,0,0,11.780239,14.552785,15.282511,15.156956,15.26335,27.775686,1.903647,3.098826,2.563866,3.009666,350,0.68535
cansat,1622288460157926307,0,0,10,0,34.34,101520.77,28.29,0,0,11.917951,14.722674,15.460745,15.333755,15.441365,27.955367,1.925851,3.134694,2.59363,3.044516,351,0.686399
cansat,1622288461157483494,0,0,10,0,34.3,101519.67,28.3,0,0,11.953033,14.765691,15.505678,15.37836,15.486246,27.835399,1.931452,3.143427,2.600978,3.053018,352,0.686595
cansat,1622288462157540160,0,0,10,0,34.31,101518.96,28.3,0,0,11.904808,14.705568,15.442136,15.315408,15.422794,28.076066,1.923542,3.129909,2.59,3.039923,353,0.685216
cansat,1622288463157606202,0,0,10,0,34.33,101520.63,28.31,0,0,12.000875,14.824856,15.567859,15.440021,15.548348,27.775686,1.939196,3.156112,2.611448,3.065332,354,0.689566
cansat,1622288464157219847,0,0,10,0,34.34,101522.38,28.32,0,0,12.085407,14.930622,15.679925,15.550997,15.660251,27.955367,1.953141,3.180395,2.631032,3.088833,355,0.690253
cansat,1622288465157361565,0,0,10,0,34.34,101522.52,28.33,0,0,12.202134,15.076893,15.835071,15.704608,15.815168,27.955367,1.972444,3.214268,2.658273,3.1216,356,0.692977
cansat,1622288466157272919,0,0,10,0,34.34,101520.35,28.33,0,0,12.301805,15.202142,15.96818,15.836357,15.948074,27.895292,1.989001,3.243729,2.681846,3.150081,357,0.692968
cansat,1622288467157513231,0,-1,10,0,34.33,101523.45,28.34,0,0,12.429949,15.361945,16.137115,16.003714,16.116772,27.955367,2.010028,3.279733,2.711067,3.184955,358,0.694618
cansat,1622288468157205418,0,0,10,0,34.35,101522.99,28.34,0,0,12.494574,15.442924,16.223005,16.088755,16.202534,28.136692,2.020715,3.298481,2.726145,3.203092,359,0.695279
cansat,1622288469157396408,0,-1,10,0,34.37,101524.27,28.34,0,0,12.550154,15.511995,16.295841,16.160942,16.275274,27.775686,2.029783,3.313725,2.738603,3.21787,360,0.692835
cansat,1622288470157287866,0,-1,10,0,34.38,101525.35,28.35,0,0,12.512269,15.465411,16.247086,16.112558,16.226574,27.895292,2.023707,3.304094,2.730551,3.208503,361,0.69353
cansat,1622288471157272240,0,0,10,0,34.56,101523.71,28.34,0,0,12.44172,15.378226,16.155508,16.021736,16.135113,28.197504,2.0123,3.285491,2.715171,3.190437,362,0.694586
cansat,1622288479156805883,0,-1,10,0,35.21,101521.92,28.39,0,0,16.542124,20.489098,21.556467,21.372601,21.52853,28.197504,2.684567,4.433556,3.647848,4.302604,1,0.706988
cansat,1622288480156901091,0,0,10,0,35.12,101521.1,28.39,0,0,16.718569,20.713686,21.797239,21.610563,21.76889,27.955367,2.714487,4.490083,3.692112,4.357086,2,0.705473
cansat,1622288481157180101,0,-1,10,0,35.06,101521.95,28.4,0,0,16.820248,20.845579,21.940426,21.75178,21.911791,28.076066,2.732254,4.526442,3.719813,4.392001,3,0.705277
cansat,1622288482156612913,0,0,10,0,34.93,101523.59,28.41,0,0,16.776415,20.796341,21.89237,21.703503,21.863712,27.775686,2.726214,4.522417,3.714625,4.387782,4,0.703847
cansat,1622288483156669006,0,0,10,0,34.85,101523.56,28.43,0,0,16.742693,20.758551,21.855574,21.666515,21.826891,27.835399,2.721588,4.519466,3.710718,4.384674,5,0.705211
cansat,1622288484156809319,0,0,10,0,34.82,101523.77,28.41,0,0,16.717081,20.730272,21.828373,21.639118,21.799671,27.955367,2.718163,4.517866,3.708121,4.382907,6,0.70371
cansat,1622288485157316141,0,-1,10,0,34.72,101522.68,28.42,0,0,16.570093,20.552059,21.643736,21.455572,21.615208,27.955367,2.695127,4.484354,3.679119,4.350146,7,0.704759
cansat,1622288486157151505,0,-1,10,0,34.68,101523.53,28.44,0,0,16.453241,20.411669,21.499254,21.311779,21.470842,27.835399,2.677087,4.459673,3.657199,4.325926,8,0.704003
cansat,1622288487157554422,0,0,10,0,34.77,101523.44,28.43,0,0,16.278788,20.198851,21.277769,21.091772,21.249586,27.895292,2.649468,4.417902,3.621619,4.285187,9,0.702932
cansat,1622288488157287963,0,-1,10,0,34.75,101523.5,28.41,0,0,16.016768,19.876883,20.940939,20.757494,20.913149,27.775686,2.607493,4.351609,3.566118,4.220693,10,0.703602
cansat,1622288489157182077,0,0,10,0,34.76,101524.55,28.44,0,0,15.686777,19.469847,20.51395,20.333935,20.486687,27.955367,2.554298,4.265745,3.494845,4.13726,11,0.702177
cansat,1622288490157269473,0,-1,10,0,34.69,101524.2,28.45,0,0,15.305104,18.997997,20.018185,19.842287,19.991549,28.197504,2.492548,4.164816,3.411471,4.039258,12,0.700755
cansat,1622288491157123899,0,0,10,0,34.6,101524.9,28.45,0,0,15.010509,18.635193,19.638029,19.465111,19.611853,28.076066,2.445182,4.089047,3.348355,3.965598,13,0.703883
cansat,1622288492157050722,0,0,10,0,34.61,101524.67,28.45,0,0,14.914332,18.521105,19.521734,19.349178,19.495625,27.955367,2.430645,4.070971,3.33161,3.947742,14,0.708995
cansat,1622288493157142128,0,0,10,0,34.68,101526.11,28.44,0,0,14.855905,18.453215,19.453632,19.281096,19.427532,27.895292,2.422114,4.062158,3.322695,3.938912,15,0.707475
cansat,1622288494156935044,0,-1,10,0,34.78,101524.87,28.44,0,0,14.744573,18.318644,19.31452,19.142752,19.288546,28.076066,2.404754,4.037402,3.301092,3.914684,16,0.706347
cansat,1622288502156043895,0,0,10,0,35.34,101522.97,28.48,0,0,13.686229,17.04405,18.000463,17.835352,17.975578,28.879027,2.24071,3.809213,3.099862,3.690988,1,0.711675
cansat,1622288503156878165,1053,-1285,650,0,35.1,101524.47,28.49,0,0,13.473801,16.783014,17.727371,17.564329,17.702806,28.258504,2.206678,3.755459,3.054861,3.638691,2,0.710884
cansat,1622288504156080978,0,0,10,0,35.01,101524.54,28.51,0,0,13.293612,16.561098,17.494835,17.333616,17.470551,28.504393,2.177705,3.709101,3.016248,3.593625,3,0.710456
cansat,1622288505155969675,0,0,10,0,34.82,101525.18,28.52,0,0,13.514112,16.836147,17.785652,17.62171,17.760958,28.197504,2.213901,3.771161,3.06659,3.653731,4,0.707338
cansat,1622288506156490769,0,0,9,0,34.67,101526.34,28.53,0,0,13.630519,16.980938,17.938437,17.773115,17.913534,27.955367,2.232922,3.80329,3.092799,3.684873,5,0.706202
cansat,1622288507155794466,0,0,10,0,34.54,101526.18,28.52,0,0,13.714315,17.085476,18.048975,17.882618,18.023918,28.258504,2.24668,3.826894,3.111941,3.707734,6,0.708594
cansat,1622288508156016549,0,0,10,0,34.49,101525.46,28.53,0,0,13.771079,17.156443,18.12413,17.957048,18.098963,28.076066,2.256032,3.843114,3.125043,3.723435,7,0.708504
cansat,1622288509155900767,0,0,10,0,34.5,101525.99,28.55,0,0,13.679313,17.042349,18.003773,17.837772,17.978769,28.197504,2.241048,3.817862,3.104426,3.698954,8,0.708504
cansat,1622288510155868527,0,-1,10,0,34.51,101524.66,28.57,0,0,13.55171,16.884096,17.837124,17.672569,17.81234,27.835399,2.220296,3.783348,3.076105,3.665472,9,0.709859
cansat,1622288511155936860,0,-1,10,0,34.51,101522.52,28.59,0,0,13.397484,16.692059,17.634327,17.47163,17.609821,27.775686,2.195052,3.740463,3.041196,3.623917,10,0.708724
cansat,1622288512155612693,0,0,10,0,34.67,101524.15,28.57,0,0,13.30683,16.579184,17.515135,17.353529,17.490793,27.775686,2.180214,3.715262,3.020682,3.599498,11,0.709311
cansat,1622288513155729880,0,0,10,0,34.88,101525.86,28.54,0,0,13.312181,16.584509,17.519775,17.358292,17.495449,28.136692,2.180806,3.71471,3.02071,3.599041,12,0.705633
cansat,1622288514155563630,0,0,10,0,34.97,101526.14,28.53,0,0,13.267157,16.527653,17.459143,17.298313,17.434916,28.319691,2.173267,3.700973,3.009813,3.585779,13,0.707352
cansat,1622288515155784932,0,-1,10,0,34.81,101525.64,28.53,0,0,13.182552,16.421267,17.346031,17.186367,17.321978,28.136692,2.159198,3.675859,2.989742,3.561504,14,0.70838
cansat,1622288516155608317,0,0,10,0,34.73,101524.46,28.52,0,0,13.067239,16.276007,17.191401,17.033361,17.167587,28.258504,2.139968,3.641236,2.962159,3.528055,15,0.705508
cansat,1622288517156199983,0,0,10,0,34.75,101523.13,28.55,0,0,13.093779,16.309366,17.226858,17.068455,17.20299,28.136692,2.144378,3.649094,2.968442,3.53565,16,0.706833
cansat,1622288518156212170,0,-1,10,0,34.81,101522.04,28.56,0,0,13.025629,16.225418,17.138882,16.981169,17.115122,28.197504,2.133417,3.631536,2.953825,3.518584,17,0.707887
cansat,1622288519155658211,0,0,10,0,34.88,101523.26,28.57,0,0,12.882528,16.047672,16.951504,16.795454,16.927994,28.319691,2.110087,3.592418,2.921824,3.48065,18,0.706449
cansat,1622288520155526961,0,0,10,0,34.93,101519.36,28.57,0,0,12.803939,15.952079,16.852224,16.696802,16.828814,28.258504,2.097704,3.574022,2.906041,3.46269,19,0.710274
cansat,1622288528155294562,0,0,10,0,34.42,101522.92,28.59,0,0,12.761553,15.929794,16.851217,16.692013,16.827299,28.566344,2.09725,3.608867,2.923481,3.494634,1,0.715399
cansat,1622288529155093624,0,-1,10,0,34.36,101524.58,28.6,0,0,12.71937,15.879045,16.798933,16.639988,16.775059,28.628489,2.090722,3.599849,2.915505,3.48579,2,0.714996
cansat,1622288530155092426,0,0,10,0,34.33,101524.26,28.61,0,0,12.726205,15.888728,16.810028,16.650835,16.786118,28.381068,2.09209,3.603546,2.918094,3.489303,3,0.716987
cansat,1622288531155227321,0,-1,10,0,34.31,101522.98,28.62,0,0,12.729969,15.894639,16.817173,16.657763,16.793232,28.258504,2.092967,3.606463,2.920031,3.492057,4,0.71724
cansat,1622288532155030082,0,0,10,0,34.29,101523.43,28.64,0,0,12.731184,15.897426,16.821056,16.661449,16.797089,28.258504,2.093436,3.608746,2.921433,3.494192,5,0.717493
cansat,1622288533154819560,0,0,10,0,34.08,101520.52,28.64,0,0,12.645842,15.792726,16.711649,16.552851,16.687805,28.258504,2.0798,3.587413,2.903506,3.473428,6,0.718546
cansat,1622288534154872893,0,0,10,0,34.01,101522.88,28.64,0,0,12.57625,15.707125,16.62203,16.463921,16.598293,28.258504,2.068633,3.569668,2.888686,3.45617,7,0.719748
cansat,1622288535155519195,0,0,10,0,34.05,101521.74,28.64,0,0,12.519542,15.637646,16.549498,16.391912,16.525843,28.258504,2.059592,3.555635,2.876857,3.442504,8,0.719995
cansat,1622288536154553778,0,0,10,0,34.39,101522.8,28.61,0,0,12.473785,15.581903,16.491543,16.334335,16.467945,28.319691,2.052364,3.544795,2.867592,3.431927,9,0.719929
cansat,1622288537155421382,0,0,10,0,34.96,101523.09,28.6,0,0,12.394055,15.485005,16.390974,16.23439,16.367477,28.015624,2.039819,3.526262,2.851654,3.413826,10,0.722033
cansat,1622288538154609767,0,-1,10,0,34.92,101524.38,28.6,0,0,12.331356,15.408739,16.311771,16.155689,16.288353,28.197504,2.02994,3.51159,2.839063,3.399501,11,0.723721
cansat,1622288539155413673,0,0,10,0,34.96,101524.14,28.57,0,0,12.241655,15.297774,16.195127,16.040022,16.171858,28.197504,2.015412,3.48776,2.819405,3.376366,12,0.720766
cansat,1622288540155494818,0,0,9,0,35.13,101523.77,28.56,0,0,12.213967,15.264211,16.160355,16.005455,16.137119,28.258504,2.011074,3.481454,2.813946,3.370201,13,0.721193
cansat,1622288541155441588,0,0,10,0,35.08,101522.44,28.56,0,0,12.195335,15.241492,16.136721,15.981978,16.113508,28.136692,2.008127,3.47701,2.810156,3.365866,14,0.722406
cansat,1622288542155405286,0,-1,10,0,35.21,101521.61,28.57,0,0,12.142816,15.175617,16.066805,15.912762,16.043697,27.835399,1.999429,3.461677,2.797846,3.351038,15,0.719458
cansat,1622289828038036503,0,0,10,0,38.17,101528.49,25.75,0,0,17.648764,23.655375,26.221004,25.772072,26.156738,25.103783,3.245925,7.475788,5.483667,7.143766,29,0.696618
cansat,1622289829039382961,0,0,10,0,38.16,101526.59,25.75,0,0,17.292271,22.937286,25.26017,24.854128,25.201813,25.103783,3.129277,6.957396,5.159908,6.657813,30,0.684862
cansat,1622289830039363846,0,0,10,0,37.9,101525.84,25.75,0,0,16.875731,22.254732,24.418327,24.040371,24.363871,25.471446,3.026251,6.590966,4.920338,6.312526,31,0.672673
cansat,1622289831039144054,0,0,10,0,37.68,101528.2,25.7,0,0,16.350626,21.510084,23.564899,23.206049,23.513142,25.418496,2.920994,6.306106,4.720987,6.041918,32,0.674947
cansat,1622289832039136970,0,0,10,0,37.73,101528.39,25.69,0,0,15.9379,20.866718,22.789885,22.454224,22.741358,24.288645,2.825915,5.993402,4.512813,5.746637,33,0.679147
cansat,1622289833038962699,0,0,10,0,37.77,101527.08,25.68,0,0,15.521312,20.239237,22.046921,21.731586,22.001238,25.103783,2.734602,5.711263,4.322108,5.479735,34,0.675108
cansat,1622289834039053115,0,0,10,0,38.02,101528.2,25.7,0,0,15.097649,19.628017,21.339651,21.041199,21.296343,25.155883,2.647463,5.465491,4.152025,5.246578,35,0.670295
cansat,1622289835039216552,0,0,10,0,38.1,101530.56,25.64,0,0,14.819848,19.1633,20.76115,20.482767,20.720627,25.155883,2.576732,5.206578,3.983826,5.002785,36,0.661281
cansat,1622289836038913479,0,0,10,0,38.49,101529.36,25.61,0,0,14.426865,18.625727,20.157833,19.890972,20.118948,25.103783,2.50215,5.023536,3.852109,4.828296,37,0.655591
cansat,1622289837038948635,0,0,10,0,38.75,101531.51,25.61,0,0,14.196109,18.236177,19.670961,19.421268,19.634459,25.103783,2.442646,4.803069,3.709263,4.620767,38,0.646327
cansat,1622289838038984884,0,0,10,0,39.35,101529.22,25.59,0,0,13.973583,17.888447,19.251572,19.014502,19.216825,25.103783,2.391201,4.633167,3.596267,4.460349,39,0.637308
cansat,1622289839039054780,0,-1,10,0,39.17,101532.32,25.6,0,0,13.799733,17.592173,18.879759,18.656017,18.846861,24.896768,2.345778,4.462803,3.486174,4.300029,40,0.629343
cansat,1622289840044140925,0,0,10,0,39.27,101531.47,25.56,0,0,13.509315,17.209644,18.460358,18.243055,18.428389,25,2.293796,4.350075,3.401904,4.192046,41,0.630774
cansat,1622289841038861237,0,0,10,0,39.46,101531.21,25.56,0,0,13.260297,16.845682,18.036207,17.829489,18.005724,24.948315,2.241578,4.198429,3.297767,4.048317,42,0.627985
cansat,1622289842039379206,0,0,10,0,39.65,101532.5,25.57,0,0,12.9437,16.426186,17.574537,17.375191,17.545116,25.103783,2.184381,4.071738,3.203696,3.927064,43,0.62329
cansat,1622289843038807695,0,0,10,0,39.81,101531.79,25.58,0,0,12.796795,16.156807,17.226212,17.040802,17.198715,25,2.141954,3.898689,3.093801,3.76454,44,0.616653
cansat,1622289844038951288,0,0,10,0,39.87,101533.94,25.58,0,0,12.518533,15.803432,16.847954,16.666864,16.821093,24.74294,2.094942,3.810778,3.02471,3.679766,45,0.617795
cansat,1622289845039485611,0,0,10,0,39.96,101534.19,25.58,0,0,12.265216,15.46862,16.480068,16.304762,16.454041,25.103783,2.049356,3.710697,2.950188,3.583944,46,0.6146
cansat,1622289846039544204,0,0,10,0,40.18,101534.4,25.6,0,0,11.996735,15.213734,16.269564,16.086308,16.242498,25.103783,2.022295,3.757476,2.95982,3.624532,47,0.62889
cansat,1622289847039120246,0,0,10,0,40.23,101536.22,25.61,0,0,11.735178,14.88204,15.91485,15.73559,15.888374,25.208123,1.978204,3.675554,2.895289,3.545509,48,0.62889
cansat,1622289848039217537,0,0,10,0,40.25,101533.75,25.61,0,0,11.525689,14.581968,15.569001,15.397785,15.54366,25.103783,1.935576,3.557331,2.813104,3.433292,49,0.626469
cansat,1622289849038616755,0,0,10,0,40.12,101530.95,25.61,0,0,11.265045,14.239193,15.193563,15.02805,15.169044,25.260504,1.889037,3.456982,2.73795,3.337143,50,0.622249
cansat,1622289849539230192,0,0,10,0,40.12,101530.95,25.61,0,0,10.990892,13.874233,14.790733,14.631844,14.767166,25.208123,1.839146,3.344676,2.654982,3.229726,51,0.624145
cansat,1622289850539248161,0,0,10,0,40.02,101532.46,25.62,0,0,10.937476,13.726071,14.573962,14.427209,14.552057,25.313026,1.813043,3.20497,2.570509,3.099226,52,0.626323
cansat,1622289851538630088,0,0,10,0,40.1,101535.31,25.62,0,0,10.808344,13.552106,14.380527,14.237181,14.359108,25.577779,1.789106,3.148924,2.529605,3.045703,53,0.623351
cansat,1622289852542794931,0,0,10,0,40.3,101535.01,25.65,0,0,10.756437,13.445139,14.236296,14.099535,14.215784,26.063576,1.771608,3.069754,2.480325,2.971515,54,0.621829
cansat,1622289853549482587,0,0,10,0,40.34,101533.09,25.66,0,0,10.634621,13.308872,14.103782,13.966318,14.083196,25.313026,1.754946,3.059452,2.466418,2.960613,55,0.621531
cansat,1622289854546504566,0,0,10,0,39.87,101532.38,25.64,0,0,10.486415,13.123036,13.906581,13.771084,13.88629,25.577779,1.730412,3.016264,2.431726,2.918839,56,0.622566
cansat,1622289855551349669,1,0,9,0,39.84,101532.68,25.63,0,0,10.376281,12.956947,13.709804,13.579708,13.690267,25.260504,1.70623,2.941368,2.38113,2.847994,57,0.62495
cansat,1622289856538699461,0,0,10,0,39.89,101532.2,25.64,0,0,10.224777,12.782522,13.536114,13.40584,13.51658,25.208123,1.684455,2.920988,2.359448,2.827398,58,0.624622
cansat,1622289857538653575,1,-1,9,0,40.43,101532.24,25.66,0,0,10.113311,12.628628,13.362446,13.235641,13.343405,25.313026,1.662999,2.866904,2.320832,2.775892,59,0.626741
cansat,1622289858538401647,7,0,5,0,40.65,101530.95,25.66,0,0,10.199844,12.738645,13.480301,13.352134,13.461059,25.103783,1.677646,2.894434,2.342428,2.802433,60,0.628753
cansat,1622289859538505501,8,-6,2,0,40.69,101528.11,25.67,0,0,10.2946,12.85774,13.606888,13.477423,13.587451,25.52454,1.693391,2.922479,2.364859,2.829541,61,0.628933
cansat,1622289860537427220,7,-7,3,0,40.55,101530.75,25.68,0,0,10.340808,12.926275,13.687386,13.555817,13.667654,25.471446,1.703293,2.952146,2.385069,2.857632,62,0.633763
cansat,1622289861538642688,6,-7,2,0,41.11,101530.14,25.69,0,0,10.544027,13.135406,13.875793,13.747959,13.856536,25.471446,1.72722,2.941504,2.392136,2.849941,63,0.62609
cansat,1622289862538403104,3,-9,1,0,41.74,101526.26,25.71,0,0,10.614725,13.215022,13.953654,13.826154,13.93443,25.846174,1.737004,2.948297,2.400679,2.857026,64,0.622758
cansat,1622289863538560552,-9,-2,1,0,42.23,101529.86,25.72,0,0,10.715611,13.312922,14.036563,13.91175,14.017688,25.471446,1.747623,2.933963,2.398941,2.844791,65,0.617833
cansat,1622289864538510291,-8,-7,0,0,42.67,101532.63,25.72,0,0,10.768013,13.361666,14.075842,13.952723,14.057189,25.792199,1.752691,2.923292,2.396167,2.835437,66,0.620467
cansat,1622289865538543363,-3,-9,1,0,42.81,101533.77,25.74,0,0,10.843879,13.430017,14.128735,14.008378,14.110446,25.365689,1.759557,2.904457,2.390189,2.818744,67,0.615752
cansat,1622289866538419717,-3,-9,1,0,42.96,101533.04,25.75,0,0,10.979018,13.640578,14.382328,14.25439,14.362981,25.260504,1.790668,3.0067,2.458268,2.915294,68,0.623533
cansat,1622289867538369821,-3,-10,1,0,43.24,101533.68,25.76,0,0,11.071183,13.745008,14.484974,14.357381,14.465658,25.260504,1.803558,3.016531,2.46997,2.925436,69,0.625093
cansat,1622289868538284873,-4,-9,0,0,42.72,101528.82,25.76,0,0,11.063612,13.77722,14.549747,14.416384,14.529645,26.063576,1.811171,3.078094,2.505168,2.982605,70,0.630609
cansat,1622289869538357789,-2,-9,2,0,41.4,101527.78,25.76,0,0,11.054765,13.778776,14.560678,14.42565,14.540351,25.684695,1.812396,3.09486,2.514312,2.998101,71,0.630283
cansat,1622289870537277789,-1,-10,-1,0,40.41,101527.63,25.75,0,0,10.94848,13.646302,14.420685,14.286956,14.400554,25.313026,1.794971,3.065104,2.490138,2.969276,72,0.630283
cansat,1622289871539015392,0,-10,-3,0,39.56,101527.11,25.72,0,0,10.925073,13.613524,14.383389,14.250454,14.363371,25.208123,1.790368,3.053043,2.481621,2.957804,73,0.623983
cansat,1622289872539119663,-1,-10,-1,0,39.52,101528.46,25.72,0,0,10.848721,13.506712,14.261923,14.131559,14.242267,25.418496,1.775374,3.013859,2.45393,2.920537,74,0.624407
cansat,1622289873538840287,-5,-5,5,0,39.36,101529.84,25.73,0,0,10.768591,13.392083,14.129901,14.002592,14.110676,25.103783,1.7591,2.968865,2.422626,2.877824,75,0.626755
cansat,1622289874538790183,-2,-3,9,0,39.26,101531.4,25.73,0,0,10.582357,13.160476,13.885531,13.760426,13.86664,25.738373,1.728677,2.917518,2.380727,2.828051,76,0.626755
cansat,1622289875538829766,-3,-4,7,0,39.32,101531.36,25.72,0,0,10.375859,12.896545,13.601792,13.48013,13.583405,25.577779,1.69343,2.849694,2.327955,2.762737,77,0.62385
cansat,1622289876537888932,-5,-7,0,0,39.46,101531.17,25.72,0,0,10.120125,12.596704,13.298888,13.177689,13.280609,25.471446,1.655524,2.807013,2.286553,2.720268,78,0.626464
cansat,1622289877537945286,-5,-7,-1,0,39.8,101529.97,25.72,0,0,10.131348,12.603578,13.300902,13.180568,13.282739,25.631164,1.655851,2.799275,2.282798,2.713194,79,0.628199
cansat,1622289878538317525,-3,-9,-2,0,39.73,101530.78,25.72,0,0,10.228621,12.700244,13.384917,13.266854,13.367047,25.208123,1.666573,2.788927,2.283134,2.704627,80,0.628482
cansat,1622289879538080494,-3,-9,-2,0,39.44,101531.01,25.72,0,0,10.25869,12.745505,13.438491,13.318965,13.420416,25.684695,1.673158,2.809246,2.296874,2.72385,81,0.631389
cansat,1622289880538562472,-9,0,0,0,39.22,101531.12,25.71,0,0,10.441902,12.934842,13.60978,13.493507,13.592115,25.471446,1.694898,2.800872,2.303952,2.718051,82,0.63417
cansat,1622289881538401639,-7,8,0,0,39.18,101533.55,25.73,0,0,10.504028,13.002776,13.674558,13.558865,13.656962,25.418496,1.703064,2.803735,2.309659,2.721388,83,0.634612
cansat,1622289882538360076,4,8,-2,0,39.17,101532.99,25.74,0,0,10.564418,13.081047,13.759484,13.642632,13.741721,25.155883,1.713602,2.825233,2.326056,2.742035,84,0.631598
cansat,1622289883538246690,6,6,0,0,39.13,101529.81,25.74,0,0,10.610251,13.124973,13.796163,13.680608,13.778568,24.74294,1.71831,2.817877,2.324777,2.735693,85,0.626353
cansat,1622289884538348252,-8,4,0,0,39.68,101533.28,25.74,0,0,10.580195,13.08059,13.744155,13.629942,13.726749,25.365689,1.711911,2.798882,2.311806,2.717702,86,0.627703
cansat,1622289885538329554,0,0,10,0,39.58,101532.61,25.73,0,0,10.443412,12.911482,13.566467,13.453732,13.549287,25.577779,1.689779,2.762698,2.281919,2.682567,87,0.627703
cansat,1622289886538222626,5,8,1,0,39.56,101531.13,25.72,0,0,10.278309,12.700648,13.339946,13.229936,13.323164,25.103783,1.661638,2.708757,2.239893,2.630612,88,0.629062
cansat,1622289887538124345,10,0,0,0,39.81,101531.88,25.74,0,0,10.035521,12.400642,13.02484,12.917428,13.008455,25.954573,1.622388,2.644774,2.186985,2.568475,89,0.629062
cansat,1622289888548238928,6,7,-2,0,40.03,101530.72,25.75,0,0,9.738509,12.033632,12.639356,12.535123,12.623456,25.954573,1.574372,2.5665,2.122259,2.492459,90,0.629062
cansat,1622289889549473979,3,7,-5,0,40.23,101531.21,25.76,0,0,9.449311,11.670795,12.254174,12.153809,12.238852,25.313026,1.526453,2.4819,2.054375,2.410645,91,0.626488
cansat,1622289890538578093,7,5,5,0,40.51,101531.35,25.79,0,0,9.212156,11.367637,11.928227,11.831824,11.913486,25.52454,1.485963,2.403935,1.993727,2.335567,92,0.621417
cansat,1622289891537370645,4,6,-6,0,40.23,101530.45,25.77,0,0,9.014286,11.113989,11.655006,11.562009,11.640764,25.103783,1.45203,2.337806,1.9425,2.271921,93,0.616451
cansat,1622289892538058041,8,2,-4,0,39.48,101529.78,25.75,0,0,8.754937,10.794228,11.319679,11.229357,11.305845,26.008999,1.410254,2.270544,1.886612,2.206555,94,0.616451
cansat,1622289893537217363,9,2,-1,0,39.1,101531.38,25.69,0,0,8.667341,10.726666,11.278994,11.183883,11.264524,25,1.404742,2.309659,1.903584,2.241979,95,0.624175
cansat,1622289894537024707,8,2,-1,0,39.06,101531.2,25.67,0,0,8.593576,10.631894,11.176756,11.082944,11.162476,25.52454,1.392046,2.284681,1.884298,2.21795,96,0.624903
cansat,1622289895537338508,9,2,-3,0,39.12,101530.32,25.68,0,0,8.540961,10.556783,11.090348,10.998521,11.076347,25.684695,1.381393,2.255376,1.863881,2.190126,97,0.623758
cansat,1622289896537368352,8,4,-1,0,39.39,101527.2,25.68,0,0,8.497581,10.49536,11.020014,10.929751,11.006233,25.738373,1.372718,2.231987,1.847496,2.167904,98,0.624716
cansat,1622289897537185539,9,4,0,0,39.77,101529.24,25.69,0,0,8.41783,10.392452,10.908679,10.819884,10.895113,25.846174,1.358898,2.2043,1.826249,2.141291,99,0.62233
cansat,1622289898537749340,-3,7,5,0,40.16,101527.67,25.71,0,0,8.429735,10.41209,10.932971,10.843356,10.919292,25.103783,1.36187,2.21497,1.833211,2.151343,100,0.626844
cansat,1622289899538034809,-8,3,-1,0,40.71,101527.62,25.72,0,0,8.359618,10.325484,10.842033,10.753163,10.828467,25.684695,1.350542,2.196546,1.817963,2.133448,101,0.626844
cansat,1622289900535480433,0,10,0,0,41.01,101529.53,25.72,0,0,8.391918,10.363254,10.880111,10.791196,10.866532,25.631164,1.355308,2.201785,1.823103,2.13867,102,0.62547
cansat,1622289901537652204,3,9,4,0,41.04,101528.42,25.71,0,0,8.44823,10.443118,10.971649,10.880685,10.957782,25.471446,1.366598,2.232348,1.84449,2.167704,103,0.628664
cansat,1622289902537815224,2,7,-1,0,41.13,101532.11,25.72,0,0,8.541994,10.562863,11.100312,11.007798,11.086218,25.954573,1.382582,2.262996,1.868366,2.197224,104,0.62906
cansat,1622289903537482828,7,0,2,0,41.27,101531.03,25.72,0,0,8.823401,10.882283,11.41474,11.323197,11.400727,26.28342,1.422057,2.293871,1.904595,2.228991,105,0.627957
cansat,1622289904537400119,9,0,1,0,41.44,101530.02,25.73,0,0,9.218366,11.347612,11.886583,11.794012,11.872363,25.954573,1.481079,2.363224,1.970529,2.297774,106,0.623742
cansat,1622289905537475536,8,4,0,0,41.7,101529.52,25.75,0,0,9.725232,11.9483,12.498425,12.404038,12.483871,25.577779,1.557571,2.457604,2.058261,2.391046,107,0.620214
cansat,1622289906537494962,7,6,0,0,41.98,101533.1,25.77,0,0,11.069501,13.638183,14.294809,14.181979,14.277507,25.365689,1.781015,2.855921,2.376746,2.776056,108,0.624626
cansat,1622289907537683035,1,7,-5,0,41.68,101530.35,25.77,0,0,11.99149,14.756109,15.453113,15.333422,15.434715,26.394274,1.925528,3.06625,2.55874,2.981663,109,0.620917
cansat,1622289908532691003,1,7,-5,0,41.68,101530.35,25.77,0,0,11.99149,14.756109,15.453113,15.333422,15.434715,26.394274,1.925528,3.06625,2.55874,2.981663,109,0.620917
cansat,1622289909537068972,9,9,0,0,41.58,101531.38,25.79,0,0,13.756036,16.887217,17.654799,17.523159,17.634464,25.631164,2.200311,3.455898,2.899573,3.363175,111,0.62257
cansat,1622289910537589909,5,1,-7,0,41.68,101532.83,25.81,0,0,14.248954,17.496502,18.294905,18.157961,18.273764,25.684695,2.280041,3.586112,3.007172,3.489621,112,0.620402
cansat,1622289911537531367,7,0,0,0,41.5,101533.57,25.82,0,0,14.540707,17.846292,18.654318,18.515764,18.632906,25.738373,2.324928,3.646604,3.061245,3.549042,113,0.620749
cansat,1622289912536685846,10,0,0,0,41.47,101534.28,25.83,0,0,14.717002,18.056406,18.869253,18.729898,18.8477,25.260504,2.351785,3.681242,3.092811,3.58317,114,0.619337
cansat,1622289913536771783,10,0,0,0,41.39,101535.77,25.83,0,0,14.805445,18.153913,18.962904,18.824259,18.941433,26.228227,2.363579,3.686539,3.101643,3.589055,115,0.615584
cansat,1622289914535108189,10,0,0,0,41.02,101532.11,25.84,0,0,14.869539,18.213634,19.011133,18.874544,18.989933,25.577779,2.369799,3.673649,3.098344,3.577764,116,0.612239
cansat,1622289915536908344,10,0,0,0,40.9,101530.31,25.85,0,0,14.755276,18.073673,18.865044,18.729506,18.844006,25.52454,2.351588,3.645417,3.074535,3.550269,117,0.612239
cansat,1622289916536580115,10,0,0,0,41.1,101532.6,25.86,0,0,14.541141,17.826263,18.617977,18.482309,18.596958,25.471446,2.320626,3.615273,3.04311,3.519911,118,0.613873
cansat,1622289917536605739,10,0,0,0,40.83,101533.27,25.85,0,0,14.310571,17.553877,18.341196,18.206236,18.320316,24.74294,2.286013,3.573653,3.003963,3.478703,119,0.616059
cansat,1622289918536481364,10,0,0,0,40.35,101531.64,25.84,0,0,14.039106,17.215899,17.984318,17.852621,17.963928,26.118306,2.241587,3.498232,2.942556,3.405618,120,0.614238
cansat,1622289919536470947,10,0,0,0,40.36,101530.32,25.85,0,0,13.770978,16.877621,17.623837,17.495987,17.604017,25.577779,2.196761,3.416933,2.877957,3.327102,121,0.610636
cansat,1622289920535077561,10,0,0,0,40.48,101530.76,25.85,0,0,13.630185,16.698185,17.431303,17.305731,17.411819,25.260504,2.172839,3.371478,2.842433,3.283302,122,0.609579
cansat,1622289921536361050,10,0,0,0,40.58,101531.49,25.85,0,0,13.474294,16.494324,17.208818,17.086496,17.189806,25.260504,2.145249,3.313217,2.798504,3.227431,123,0.610911
cansat,1622289922536379435,10,0,0,0,40.4,101533.39,25.85,0,0,13.276772,16.261738,16.973076,16.851252,16.954165,25.52454,2.115759,3.278728,2.765642,3.193213,124,0.613025
cansat,1622289923536116154,10,0,0,0,40.22,101532.17,25.86,0,0,13.069128,16.015879,16.72282,16.601706,16.704041,26.84406,2.08447,3.240397,2.729895,3.155312,125,0.612842
cansat,1622289924534794643,10,0,0,0,40.29,101531.65,25.85,0,0,12.972219,15.878131,16.564741,16.447201,16.546465,25.52454,2.064976,3.187335,2.69282,3.104915,126,0.608029
cansat,1622289925536341257,10,0,0,0,40.4,101533.54,25.86,0,0,12.793794,15.655824,16.329882,16.214506,16.311932,25.365689,2.035741,3.137511,2.652313,3.056645,127,0.606339
cansat,1622289926536509382,9,0,-2,0,40.3,101531.02,25.86,0,0,12.517634,15.317885,15.977394,15.864511,15.959834,25.313026,1.991799,3.069788,2.595062,2.990666,128,0.606339
cansat,1622289927536383809,9,-2,-1,0,40.44,101531.24,25.86,0,0,12.21793,14.945893,15.585448,15.476004,15.568408,25.577779,1.942996,2.988275,2.528283,2.911609,129,0.607288
cansat,1622289928536487246,9,-5,0,0,40.43,101528.06,25.87,0,0,11.847984,14.493349,15.113534,15.007405,15.097011,24.948315,1.884164,2.89779,2.451727,2.823446,130,0.607288
cansat,1622289929536320683,8,-5,0,0,40.32,101530.08,25.88,0,0,11.575291,14.14588,14.740756,14.639024,14.724877,25.577779,1.837845,2.809857,2.382986,2.738711,131,0.60691
cansat,1622289930535935995,8,-5,0,0,40.01,101529.38,25.88,0,0,11.352145,13.875669,14.461058,14.360937,14.44544,25.313026,1.802945,2.759501,2.339257,2.689459,132,0.607695
cansat,1622289931541509745,8,-5,0,0,39.73,101529.49,25.89,0,0,11.153328,13.62686,14.19739,14.099837,14.182156,25.313026,1.770137,2.702308,2.293149,2.634114,133,0.608474
cansat,1622289932536650682,9,-5,0,0,39.42,101532.43,25.88,0,0,10.875242,13.287101,13.843407,13.748286,13.828552,25.631164,1.726002,2.634932,2.235974,2.568438,134,0.608474
cansat,1622289933536746619,9,-5,0,0,39.34,101531.16,25.88,0,0,10.698689,13.084797,13.642722,13.54726,13.627851,25.103783,1.700831,2.61265,2.211557,2.545801,135,0.610298
cansat,1622289934534392660,9,-5,0,0,39.33,101533.64,25.88,0,0,10.461402,12.794588,13.340138,13.246795,13.325598,25.684695,1.663108,2.554704,2.162507,2.489337,136,0.610298
cansat,1622289935536026878,9,-5,0,0,39.27,101532.68,25.88,0,0,10.259137,12.540071,13.069399,12.978863,13.055276,25.471446,1.629434,2.49439,2.114364,2.431051,137,0.609584
cansat,1622289936536206878,8,-5,0,0,39.03,101532.17,25.87,0,0,10.06528,12.309216,12.833387,12.743705,12.819416,25.103783,1.599942,2.456584,2.07982,2.39379,138,0.60942
cansat,1622289937535736773,9,-5,0,0,38.95,101531.63,25.86,0,0,9.90932,12.110167,12.619607,12.532485,12.606011,25.684695,1.573382,2.4058,2.040219,2.344869,139,0.610675
cansat,1622289938535719065,9,-4,0,0,38.96,101532.29,25.87,0,0,9.834959,12.031343,12.546539,12.458374,12.532813,25.418496,1.564138,2.406178,2.035594,2.344412,140,0.612442
cansat,1622289939535733700,9,-5,0,0,38.95,101529.05,25.87,0,0,9.687696,11.851194,12.358677,12.271832,12.345157,25.631164,1.540718,2.370152,2.005116,2.309311,141,0.612442
cansat,1622289940534602189,9,-5,0,0,39.15,101530.59,25.88,0,0,9.584004,11.7391,12.252874,12.164882,12.239215,25.684695,1.527364,2.36734,1.996732,2.305572,142,0.615803
cansat,1622289941535698022,9,-5,0,0,39.54,101528.98,25.89,0,0,9.510843,11.643704,12.148963,12.062457,12.13552,25.365689,1.514475,2.340429,1.976365,2.279751,143,0.612618
cansat,1622289942536494115,9,-4,0,0,39.71,101527.98,25.89,0,0,9.491457,11.610316,12.106874,12.021902,12.093643,25.260504,1.509335,2.320896,1.963778,2.261376,144,0.609808
cansat,1622289943535553646,10,-3,0,0,39.48,101530.33,25.91,0,0,9.511357,11.625907,12.116549,12.03263,12.103457,26.84406,1.510639,2.312377,1.960135,2.253669,145,0.609613
cansat,1622289944534756146,9,-2,0,0,39.36,101529.38,25.93,0,0,9.424211,11.519383,12.005529,11.92238,11.992558,25.52454,1.496797,2.291187,1.942174,2.233017,146,0.609613
cansat,1622289945536374635,10,-2,0,0,39.34,101529.44,25.93,0,0,9.259378,11.317905,11.795548,11.713855,11.782804,25.313026,1.470618,2.251114,1.908205,2.193961,147,0.609613
cansat,1622289946535586405,9,-3,-1,0,39.33,101530.07,25.94,0,0,9.07937,11.095362,11.56172,11.481968,11.549272,25.418496,1.441493,2.203504,1.868878,2.147732,148,0.608074
cansat,1622289947535657759,10,-3,-1,0,39.37,101531.54,25.95,0,0,8.886035,10.856975,11.311714,11.233959,11.299571,24.948315,1.410347,2.153335,1.827199,2.098978,149,0.608566
cansat,1622289948535542967,9,-4,-1,0,39.28,101530.79,25.96,0,0,8.684067,10.608218,11.051039,10.975332,11.039212,23.7475,1.377868,2.101348,1.783904,2.048439,150,0.609062
cansat,1622289949535605936,9,-3,-1,0,39.18,101530.3,25.97,0,0,8.570024,10.461463,10.892553,10.818888,10.881023,25.577779,1.35819,2.062369,1.753878,2.010953,151,0.608895
cansat,1622289950535355675,9,-4,-1,0,39.19,101531.5,25.97,0,0,9.37688,11.491961,11.999846,11.912831,11.986357,25.260504,1.49575,2.326212,1.959396,2.265075,152,0.619939
cansat,1622289951535467497,8,-4,-1,0,39.16,101528.94,25.97,0,0,9.987245,12.234366,12.770833,12.678948,12.756574,25.155883,1.591914,2.469015,2.081944,2.404502,153,0.619282
cansat,1622289952535502028,9,-3,0,0,39.19,101531.47,25.99,0,0,10.345358,12.690623,13.260288,13.162634,13.245179,25.313026,1.652731,2.58441,2.17217,2.515702,154,0.621935
cansat,1622289953535051403,9,-3,-1,0,39.43,101529.17,25.99,0,0,10.754087,13.203193,13.804251,13.701164,13.788331,24.948315,1.720405,2.703616,2.267902,2.630996,155,0.621948
cansat,1622289954534995725,9,-3,-1,0,39.4,101530.45,25.99,0,0,10.990488,13.491207,14.103708,13.99867,14.087481,25.577779,1.757751,2.759645,2.315784,2.685668,156,0.622421
cansat,1622289955535390308,10,-2,-1,0,39.42,101528.61,25.98,0,0,11.142576,13.683055,14.308128,14.200911,14.291577,25.418496,1.783171,2.805717,2.3524,2.730163,157,0.624506
cansat,1622289956535324318,10,0,-1,0,39.54,101530.05,25.99,0,0,11.254456,13.812091,14.436802,14.329685,14.420246,25.103783,1.799299,2.821115,2.368615,2.745698,158,0.62607
cansat,1622289957535240308,9,2,-1,0,39.73,101531.4,26.01,0,0,11.271791,13.829893,14.45281,14.346016,14.436296,25.471446,1.801333,2.820153,2.369187,2.744992,159,0.624592
cansat,1622289958535743380,10,-2,-1,0,39.91,101529.72,26.03,0,0,11.355959,13.920791,14.538527,14.432676,14.522126,23.844769,1.812153,2.822294,2.37591,2.747895,160,0.620672
cansat,1622289959535399109,9,-3,-1,0,40.03,101530.76,26.04,0,0,11.299159,13.851163,14.465808,14.360488,14.44949,25.313026,1.803089,2.808177,2.364026,2.73415,161,0.620672
cansat,1622289960534428275,10,0,-1,0,40.29,101528.71,26.05,0,0,11.14016,13.656252,14.262249,14.15841,14.24616,25.418496,1.777716,2.768661,2.33076,2.695676,162,0.620672
cansat,1622289961535217493,9,-2,0,0,40.55,101528.39,26.06,0,0,11.043221,13.525064,14.115967,14.014771,14.100256,25.418496,1.75962,2.725674,2.299524,2.654647,163,0.622053
cansat,1622289962534900566,9,-4,0,0,40.64,101529.54,26.05,0,0,10.908514,13.377755,13.975497,13.873049,13.959639,25.684695,1.741914,2.719454,2.287143,2.6474,164,0.624574
cansat,1622289963536146555,9,-5,0,0,40.61,101529.45,26.06,0,0,10.754275,13.184822,13.771108,13.67064,13.755546,25.208123,1.71648,2.67522,2.251452,2.604591,165,0.625339
cansat,1622289964536820878,9,-3,0,0,40.89,101531.78,26.06,0,0,10.598588,12.998898,13.58063,13.48092,13.565198,25.471446,1.692684,2.644061,2.223247,2.573925,166,0.627359
cansat,1622289965538269471,10,0,-1,0,40.87,101528.1,26.05,0,0,10.623219,13.034254,13.621428,13.520761,13.605862,25.260504,1.697712,2.658077,2.232977,2.587226,167,0.628185
cansat,1622289966537191658,9,-4,0,0,40.79,101529.52,26.06,0,0,10.574913,12.983501,13.574772,13.473363,13.559113,25.260504,1.691803,2.65901,2.230372,2.587569,168,0.629418
cansat,1622289967536287595,9,-4,0,0,40.59,101530.75,26.06,0,0,10.531526,12.923512,13.50702,13.406974,13.491552,25.313026,1.683433,2.637829,2.215266,2.567401,169,0.628747
cansat,1622289968535243897,9,-3,-1,0,40.64,101530.64,26.06,0,0,10.463344,12.846287,13.431135,13.33083,13.415646,23.7475,1.673904,2.630601,2.206634,2.559939,170,0.630414
cansat,1622289969535024470,9,-3,-1,0,40.85,101531.75,26.07,0,0,10.309499,12.657405,13.233653,13.134823,13.218391,25.155883,1.649292,2.591923,2.17419,2.5223,171,0.630414
cansat,1622289970533548948,9,-3,0,0,40.78,101531.98,26.08,0,0,10.208316,12.535156,13.107322,13.009182,13.092171,25.103783,1.633525,2.569508,2.154605,2.500357,172,0.628814
cansat,1622289971534901344,10,-3,0,0,40.6,101532.35,26.06,0,0,10.255156,12.580078,13.144859,13.048042,13.129881,24.794081,1.638343,2.562037,2.153324,2.493918,173,0.629207
cansat,1622289972534960041,9,-3,0,0,40.46,101532.49,26.06,0,0,10.225301,12.540474,13.101242,13.005127,13.086365,24.74294,1.632939,2.550021,2.144413,2.48242,174,0.627826
cansat,1622289973535020770,9,-3,-1,0,40.29,101530.18,26.05,0,0,10.187446,12.489369,13.044344,12.949244,13.029612,24.948315,1.6259,2.533428,2.132328,2.466578,175,0.62689
cansat,1622289974534796864,8,-4,0,0,39.97,101531.22,26.05,0,0,10.234445,12.536684,13.08603,12.99194,13.071427,25.471446,1.63121,2.529359,2.133029,2.463303,176,0.62686
cansat,1622289975534919051,9,-2,-1,0,39.74,101533.33,26.05,0,0,10.206948,12.500169,13.045787,12.95235,13.031278,25.155883,1.626225,2.518229,2.124786,2.452655,177,0.625508
cansat,1622289976534947332,9,-2,-1,0,39.62,101532.43,26.07,0,0,10.126225,12.398541,12.937646,12.845337,12.923305,24.948315,1.612775,2.494084,2.105529,2.429323,178,0.624163
cansat,1622289977534858112,12,-1,0,0,39.59,101531.04,26.07,0,0,10.142045,12.406879,12.93806,12.847159,12.923907,25.208123,1.612949,2.48111,2.099039,2.417431,179,0.624261
cansat,1622289978534705768,10,-2,0,0,39.67,101532.17,26.07,0,0,10.086879,12.338908,12.866813,12.776476,12.852748,26.118306,1.604072,2.466872,2.087191,2.403591,180,0.624583
cansat,1622289979534776549,9,-3,-1,0,39.76,101532.05,26.08,0,0,9.975595,12.2101,12.737998,12.647627,12.723947,25.418496,1.587932,2.450849,2.070653,2.387482,181,0.62573
cansat,1622289980534573111,9,-2,0,0,39.81,101533.18,26.07,0,0,9.931,12.147642,12.666923,12.578064,12.653086,25.260504,1.579159,2.427855,2.054417,2.365614,182,0.621776
cansat,1622289981534733580,9,-3,-1,0,39.86,101533.91,26.08,0,0,9.834246,12.026774,12.538996,12.451356,12.525342,25.365689,1.563239,2.400351,2.03217,2.338987,183,0.620472
cansat,1622289982534429933,9,-2,-1,0,39.89,101532.47,26.08,0,0,9.794695,11.969695,12.472935,12.386875,12.459503,25.954573,1.5551,2.377379,2.016276,2.317194,184,0.62016
cansat,1622289983534709568,9,-2,-1,0,39.91,101534.33,26.08,0,0,9.691812,11.850861,12.354291,12.268166,12.340869,26.118306,1.540231,2.362948,2.001208,2.302657,185,0.621286
cansat,1622289984534392849,9,-2,-1,0,39.91,101532.41,26.08,0,0,9.518057,11.638399,12.132807,12.048224,12.119624,25.365689,1.512618,2.320586,1.965331,2.261376,186,0.621286
cansat,1622289985534291286,9,-2,-1,0,39.93,101533.99,26.09,0,0,9.373876,11.457422,11.940625,11.857983,11.927732,25.631164,1.48871,2.278285,1.931415,2.220472,187,0.618717
cansat,1622289986534315244,9,-2,-1,0,39.93,101533.09,26.1,0,0,9.285349,11.351974,11.832801,11.75055,11.819976,25.260504,1.475236,2.260979,1.915615,2.203417,188,0.618977
cansat,1622289987534033004,9,-2,-1,0,39.93,101531.49,26.09,0,0,9.260488,11.31503,11.789367,11.708259,11.776702,25.900298,1.469894,2.244912,1.904681,2.188207,189,0.618816
cansat,1622289988534044931,9,-2,0,0,39.94,101531.36,26.09,0,0,9.279756,11.331222,11.800703,11.720461,11.788155,24.896768,1.47139,2.238343,1.902128,2.182306,190,0.616582
cansat,1622289989534061441,9,-3,-1,0,39.94,101531.88,26.1,0,0,9.241446,11.282297,11.748136,11.668528,11.73568,25.900298,1.464859,2.225822,1.892373,2.170246,191,0.615339
cansat,1622289990532745347,10,-2,-1,0,39.93,101528.9,26.1,0,0,9.209,11.237082,11.696833,11.618293,11.684528,25.738373,1.458525,2.209439,1.880762,2.154659,192,0.616298
cansat,1622289991534161545,9,-2,-1,0,40,102000.12,26.1,0,0,9.085367,11.086222,11.539801,11.462316,11.527661,25.365689,1.438944,2.179777,1.855513,2.125733,193,0.616298
cansat,1622289992533805294,8,-2,-1,0,39.96,101719.64,26.11,0,0,8.894371,10.853164,11.297207,11.22135,11.285322,25.418496,1.408694,2.133953,1.816506,2.081045,194,0.616298
cansat,1622289993534002065,9,-1,0,0,39.94,101568.45,26.11,0,0,8.695535,10.609231,11.042308,10.96833,11.030713,25.365689,1.376924,2.084249,1.774738,2.032663,195,0.616711
cansat,1622289994531988470,10,-2,0,0,39.89,101323.02,26.11,0,0,8.492456,10.358971,10.779957,10.708057,10.768682,25.738373,1.344238,2.031768,1.731084,1.981653,196,0.61739
cansat,1622289995533914564,9,-2,-1,0,39.91,101485.18,26.12,0,0,8.286169,10.10545,10.514704,10.444818,10.503738,25.631164,1.311183,1.979517,1.687355,1.930822,197,0.616157
cansat,1622289996533917324,9,-3,-1,0,39.92,101526.27,26.12,0,0,8.116942,9.902639,10.306373,10.237412,10.295563,25.577779,1.285164,1.944551,1.656061,1.896468,198,0.616006
cansat,1622289997533785292,9,-3,-1,0,39.95,101715.31,26.13,0,0,8.038896,9.801504,10.196651,10.129188,10.18606,25.738373,1.271548,1.916802,1.63489,1.869815,199,0.614243
cansat,1622289998533885500,10,-2,-1,0,39.95,101659.01,26.13,0,0,7.980364,9.726707,10.11625,10.04976,10.105802,27.188283,1.26156,1.897598,1.619943,1.851321,200,0.615323
cansat,1622289999533763729,10,-2,-1,0,39.94,101606.15,26.13,0,0,7.986619,9.728636,10.11396,10.04822,10.103613,25.792199,1.261339,1.890379,1.616166,1.844676,201,0.613588
cansat,1622290000532222374,10,-3,0,0,39.95,101774.56,26.13,0,0,7.951847,9.684592,10.066897,10.00168,10.056627,25.631164,1.255488,1.879567,1.607633,1.834244,202,0.612395
cansat,1622290001534093416,9,-3,-1,0,39.92,101548.92,26.14,0,0,7.925484,9.655876,10.03961,9.974132,10.029308,25.846174,1.252047,1.878524,1.605311,1.832988,203,0.612254
cansat,1622290002533650238,9,-3,-1,0,39.92,101537.36,26.14,0,0,7.919302,9.644511,10.024899,9.960011,10.014679,25.260504,1.250255,1.871195,1.600659,1.826104,204,0.611737
cansat,1622290003534147686,9,-3,-1,0,39.92,101535.09,26.15,0,0,7.831502,9.537584,9.913754,9.849586,9.903647,25.52454,1.236394,1.85045,1.582914,1.80586,205,0.611737
cansat,1622290004534267217,9,-3,-1,0,39.91,101534.9,26.15,0,0,7.807333,9.506599,9.880377,9.816625,9.870332,25.954573,1.232249,1.842368,1.576654,1.798082,206,0.611486
cansat,1622290005534072060,9,-3,-1,0,39.95,101832.99,26.16,0,0,7.853573,9.563314,9.939633,9.875444,9.92952,25.684695,1.239634,1.853909,1.586356,1.809316,207,0.612375
cansat,1622290006534189455,9,-3,-1,0,39.92,101683.8,26.16,0,0,7.855976,9.566525,9.943185,9.878937,9.933063,25.900298,1.240074,1.854911,1.587094,1.810275,208,0.613032
cansat,1622290007534009091,9,-2,-1,0,39.9,101554.79,26.16,0,0,7.865949,9.579133,9.956639,9.892245,9.946496,25.954573,1.241747,1.857975,1.589519,1.813231,209,0.614454
cansat,1622290008534071538,9,-3,-1,0,39.9,101538.73,26.17,0,0,7.83884,9.546455,9.922926,9.858706,9.91281,26.28342,1.237538,1.852082,1.584338,1.807457,210,0.615111
cansat,1622290009534065288,9,-2,-1,0,39.89,101534.25,26.17,0,0,7.738445,9.424504,9.796402,9.732962,9.786411,26.008999,1.221756,1.828842,1.564325,1.784755,211,0.615111
cansat,1622290010534679923,9,-2,-1,0,39.89,101532.89,26.17,0,0,7.75338,9.44299,9.815843,9.752237,9.805827,25.846174,1.224177,1.832827,1.567608,1.788623,212,0.612635
cansat,1622290011533981016,9,-3,-1,0,39.89,101533.07,26.17,0,0,7.861634,9.575064,9.953305,9.888779,9.943144,25.900298,1.241318,1.858768,1.589698,1.813923,213,0.613411
cansat,1622290012534151745,9,-2,-1,0,39.89,101533.15,26.18,0,0,7.870662,9.586278,9.965128,9.900497,9.954951,26.118306,1.24279,1.861238,1.591718,1.816317,214,0.613411
cansat,1622290013533184192,9,-3,-1,0,39.89,101534.76,26.18,0,0,7.886254,9.605314,9.984951,9.920185,9.974752,25.954573,1.245261,1.864995,1.594912,1.81998,215,0.611083
cansat,1622290014533309452,9,-3,-1,0,39.89,101527.92,26.19,0,0,7.950513,9.683407,10.065999,10.000731,10.055722,25.954573,1.255371,1.879925,1.607754,1.834563,216,0.609163
cansat,1622290015533290598,8,-4,-3,0,39.89,101530.13,26.19,0,0,7.966596,9.702752,10.085923,10.020557,10.07563,25.900298,1.257859,1.883355,1.61079,1.837927,217,0.60801
cansat,1622290016533055910,7,-3,-1,0,39.87,101531.91,26.2,0,0,7.943507,9.67432,10.056137,9.991003,10.045878,25.631164,1.254147,1.877424,1.605847,1.83216,218,0.60686
cansat,1622290017532983201,8,-3,0,0,39.88,101531.29,26.19,0,0,7.88896,9.607491,9.986368,9.921739,9.976189,24.489241,1.245451,1.863923,1.594467,1.819013,219,0.607518
cansat,1622290018533129711,8,-5,-2,0,39.87,101534.23,26.21,0,0,7.765943,9.457303,9.829977,9.766407,9.819963,26.84406,1.22595,1.834288,1.569273,1.790119,220,0.607518
cansat,1622290019532961586,11,-7,0,0,39.87,101536.06,26.21,0,0,7.675689,9.346916,9.714878,9.652115,9.70499,26.008999,1.211601,1.81224,1.550612,1.768635,221,0.606766
cansat,1622290020531038356,5,-5,0,0,39.87,101538.08,26.21,0,0,7.612567,9.269761,9.634467,9.572261,9.624665,25.900298,1.201576,1.796894,1.537604,1.753678,222,0.606641
cansat,1622290021532906481,7,-7,-4,0,39.87,101537.6,26.21,0,0,7.485353,9.114582,9.472978,9.411849,9.463345,25.954573,1.181438,1.766452,1.511668,1.723987,223,0.606641
cansat,1622290022533349137,7,-4,0,0,39.87,101539.12,26.22,0,0,7.351048,8.950684,9.302361,9.24238,9.292909,25.738373,1.160164,1.734204,1.484225,1.692541,224,0.606901
cansat,1622290023532951793,7,-5,-3,0,39.86,101538.04,26.22,0,0,7.168793,8.728434,9.071127,9.012679,9.061914,24.948315,1.131329,1.690696,1.447129,1.650101,225,0.606901
cansat,1622290024532780907,7,-7,0,0,39.86,101539.2,26.22,0,0,6.949515,8.46114,8.793105,8.736489,8.784181,25.900298,1.096658,1.638509,1.402591,1.599188,226,0.606901
cansat,1622290025533981636,6,-5,-3,0,39.85,101540.57,26.23,0,0,6.702432,8.16003,8.479968,8.425406,8.471368,25.954573,1.057607,1.579821,1.352473,1.541929,227,0.606901
cansat,1622290026532505333,8,-9,0,0,39.84,101534.83,26.23,0,0,6.435294,7.83454,8.141521,8.08917,8.133267,25.631164,1.0154,1.516461,1.298339,1.480106,228,0.606901
cansat,1622290027532165125,3,-7,1,0,39.84,101532.37,26.23,0,0,6.198129,7.545482,7.840891,7.790514,7.832948,25.900298,0.977909,1.460074,1.250201,1.425095,229,0.607165
cansat,1622290028532394916,9,-11,-1,0,39.84,101533.41,26.23,0,0,6.031132,7.341741,7.62884,7.579882,7.621119,27.362676,0.951467,1.420061,1.216126,1.386071,230,0.606675
cansat,1622290029532230853,7,-5,-1,0,39.83,101535.39,26.24,0,0,5.922661,7.209151,7.490653,7.442652,7.483082,26.063576,0.934239,1.393686,1.193769,1.360366,231,0.60619
cansat,1622290030532794446,5,-7,-2,0,39.83,101534.38,26.24,0,0,5.775635,7.029685,7.303796,7.257059,7.296422,25.954573,0.91094,1.358315,1.163687,1.325876,232,0.60619
cansat,1622290031533021529,7,-12,-1,0,39.83,101535.94,26.25,0,0,5.685631,6.919784,7.189342,7.143383,7.18209,25.954573,0.896669,1.336607,1.145239,1.304712,233,0.606063
cansat,1622290032532343768,4,-4,0,0,39.82,101538.04,26.25,0,0,5.59944,6.8145,7.079669,7.03446,7.072534,25.954573,0.882994,1.315758,1.127537,1.284388,234,0.604919
cansat,1622290033530909966,7,-6,-3,0,39.81,101536.15,26.25,0,0,5.560771,6.766946,7.029889,6.985062,7.022813,25.792199,0.876791,1.305916,1.119313,1.274815,235,0.604044
cansat,1622290034532294601,8,-7,-1,0,39.81,101532.62,26.26,0,0,5.561003,6.766634,7.029116,6.984372,7.022051,26.063576,0.876701,1.305061,1.118832,1.274022,236,0.603567
cansat,1622290035532340694,4,-5,-1,0,39.81,101534.59,26.26,0,0,5.505673,6.698748,6.958174,6.913953,6.95119,25.846174,0.867859,1.29122,1.107204,1.26055,237,0.603567
cansat,1622290036532793923,9,-7,-3,0,39.8,101536.23,26.26,0,0,5.449415,6.629725,6.886042,6.842354,6.87914,26.008999,0.858869,1.277146,1.09538,1.246852,238,0.602431
cansat,1622290037532820329,7,-7,0,0,39.81,101537.24,26.26,0,0,5.436517,6.613395,6.868601,6.825107,6.861728,26.17319,0.856701,1.273151,1.092224,1.242996,239,0.603369
cansat,1622290038532300381,4,-6,0,0,39.8,101535.98,26.27,0,0,5.415375,6.587007,6.840686,6.797454,6.833852,27.015419,0.853227,1.267174,1.087381,1.237208,240,0.604037
cansat,1622290039532780224,4,-7,-2,0,39.78,101534.41,26.27,0,0,5.344193,6.499795,6.74964,6.707066,6.742909,26.394274,0.841878,1.249555,1.072531,1.22005,241,0.604037
cansat,1622290040530609182,5,-8,0,0,39.78,101536.41,26.28,0,0,5.27674,6.417118,6.663302,6.621354,6.656668,26.008999,0.831116,1.232808,1.058427,1.203744,242,0.602899
cansat,1622290041531880380,5,-6,0,0,39.78,101536.79,26.28,0,0,5.256622,6.391899,6.636547,6.594865,6.629952,26.008999,0.827787,1.226957,1.053725,1.198084,243,0.603441
cansat,1622290042532682775,4,-8,-3,0,39.77,101537.57,26.29,0,0,5.231412,6.360517,6.603414,6.562034,6.596864,27.955367,0.823663,1.219959,1.048026,1.191303,244,0.603717
cansat,1622290043530389598,8,-8,0,0,39.77,101537.46,26.29,0,0,5.202369,6.32447,6.565434,6.524388,6.558935,25.900298,0.818934,1.212062,1.041556,1.183644,245,0.60258
cansat,1622290044532632462,4,-4,0,0,39.76,101535.63,26.29,0,0,5.170282,6.284924,6.523973,6.483256,6.517525,26.28342,0.813768,1.203763,1.034654,1.175578,246,0.603593
cansat,1622290045532439961,6,-11,-4,0,39.76,101536.32,26.29,0,0,5.179847,6.295953,6.53497,6.494262,6.528522,25.954573,0.815147,1.205076,1.036039,1.176903,247,0.602849
cansat,1622290046532898138,6,-7,0,0,39.75,101536.46,26.3,0,0,5.266721,6.400808,6.643247,6.60196,6.636704,25.792199,0.828661,1.224159,1.052761,1.195592,248,0.60125
cansat,1622290047532443607,4,-5,-2,0,39.75,101538.84,26.3,0,0,5.284556,6.42178,6.664481,6.623154,6.65793,25.954573,0.831318,1.227229,1.055702,1.19864,249,0.60125
cansat,1622290048531529804,8,-9,-4,0,39.75,101537.88,26.3,0,0,5.289909,6.427549,6.669911,6.628644,6.663367,25.738373,0.832003,1.227346,1.056119,1.198808,250,0.60192
cansat,1622290049531511522,4,-8,0,0,39.75,101538.85,26.31,0,0,5.285083,6.42094,6.662489,6.621366,6.655966,26.338769,0.831086,1.225088,1.054495,1.196655,251,0.600788
cansat,1622290050530103189,3,-6,-2,0,39.75,101538.83,26.31,0,0,5.228434,6.351417,6.589821,6.549236,6.583381,26.118306,0.822029,1.210887,1.042572,1.182834,252,0.600788
cansat,1622290051531583605,7,-12,0,0,39.74,101539.4,26.31,0,0,5.130357,6.231622,6.465035,6.425304,6.458729,26.063576,0.80647,1.187175,1.022437,1.159718,253,0.600788
cansat,1622290052531940115,4,-6,0,0,39.74,101538.22,26.32,0,0,4.999686,6.072299,6.299288,6.260653,6.293154,24.3386,0.785801,1.156015,0.995861,1.129322,254,0.600788
cansat,1622290053529743604,5,-9,-5,0,39.73,101542.22,26.33,0,0,4.887554,5.935507,6.156926,6.119243,6.150941,25.846174,0.768049,1.129167,0.972991,1.103137,255,0.59966
cansat,1622290054531543708,7,-11,-1,0,39.73,101542.54,26.33,0,0,4.747916,5.765374,5.980026,5.943498,5.974222,26.338769,0.745988,1.096057,0.9447,1.07083,256,0.59966
cansat,1622290055531428135,4,-6,-1,0,39.72,101539.36,26.33,0,0,4.631039,5.622897,5.831824,5.796273,5.826174,26.118306,0.727506,1.068229,0.920954,1.043682,257,0.598535
cansat,1622290056530064489,2,-9,-4,0,39.72,101541.27,26.33,0,0,4.577428,5.557211,5.76325,5.728194,5.757677,26.228227,0.718959,1.054958,0.909768,1.030759,258,0.597808
cansat,1622290057531545113,6,-9,0,0,39.72,101540.78,26.34,0,0,4.531963,5.501428,5.704954,5.670328,5.699447,25.954573,0.711693,1.043581,0.900211,1.019685,259,0.598207
cansat,1622290058531278706,4,-5,-2,0,39.72,101540.38,26.34,0,0,4.449896,5.401257,5.600661,5.566739,5.595264,27.6568,0.698689,1.023844,0.883423,1.00044,260,0.598207
cansat,1622290059531513550,8,-10,-3,0,39.7,101539.54,26.35,0,0,4.338988,5.266128,5.460158,5.427155,5.454906,26.394274,0.681167,0.99755,0.860955,0.974783,261,0.598207
cansat,1622290060531235529,4,-6,-2,0,39.7,101539.81,26.35,0,0,4.205815,5.104032,5.291736,5.25981,5.286654,26.063576,0.660161,0.966217,0.834116,0.9442,262,0.598207
cansat,1622290061531410945,6,-7,-3,0,39.7,101539.46,26.36,0,0,4.05593,4.921709,5.102383,5.071656,5.09749,26.063576,0.636543,0.931129,0.80401,0.909942,263,0.598207
cansat,1622290062531900424,3,-8,-2,0,39.7,101539.51,26.36,0,0,3.937688,4.7778,4.952867,4.923096,4.948125,25.631164,0.617895,0.90333,0.780192,0.882807,264,0.597087
cansat,1622290063531192455,4,-8,-1,0,39.69,101538.02,26.36,0,0,3.84629,4.666455,4.837105,4.808087,4.832481,25.846174,0.603458,0.881681,0.761688,0.861682,265,0.597757
cansat,1622290064545860319,0,-12,-2,0,39.68,101534.83,26.37,0,0,3.777539,4.582599,4.749843,4.721406,4.74531,26.338769,0.592577,0.865239,0.747677,0.845645,266,0.596639
cansat,1622290065540855058,-2,-9,0,0,39.69,101544.99,26.37,0,0,3.684129,4.468868,4.631647,4.603972,4.627235,26.063576,0.577836,0.84321,0.728822,0.824145,267,0.596638
cansat,1622290066535024953,-2,-10,0,0,39.7,101546.89,26.38,0,0,3.615377,4.385056,4.544468,4.517368,4.540146,25.954573,0.566964,0.82684,0.714853,0.808175,268,0.595523
cansat,1622290067538919641,-2,-10,0,0,39.69,101548.55,26.38,0,0,3.567315,4.326327,4.483275,4.456597,4.479019,25.792199,0.559335,0.815185,0.704965,0.796814,269,0.596197
cansat,1622290068531982036,-2,-10,0,0,39.69,101549.91,26.39,0,0,3.492765,4.235513,4.388861,4.362797,4.384701,25.365689,0.54756,0.797532,0.689875,0.779589,270,0.596196
cansat,1622290069534000161,-2,-10,0,0,39.67,101550.6,26.39,0,0,3.441217,4.172602,4.323368,4.297745,4.319277,26.394274,0.539394,0.785149,0.679338,0.767513,271,0.596597
cansat,1622290070530367660,-2,-10,0,0,39.66,101549.91,26.39,0,0,3.365102,4.079936,4.227071,4.202067,4.223078,26.118306,0.527384,0.767212,0.663981,0.750006,272,0.596597
cansat,1622290071532959691,-2,-10,0,0,39.66,101549.63,26.39,0,0,3.269837,3.964091,4.106788,4.082541,4.102915,25.954573,0.512381,0.744967,0.64488,0.728285,273,0.596597
cansat,1622290072532629899,-2,-10,0,0,39.64,101549.15,26.4,0,0,3.203747,3.883623,4.02316,3.999451,4.019372,26.561739,0.501951,0.729381,0.631539,0.713074,274,0.595482
cansat,1622290073532743076,-2,-10,0,0,39.63,101549.5,26.4,0,0,3.161975,3.832623,3.970052,3.946704,3.966321,25.954573,0.495329,0.719315,0.622982,0.70326,275,0.596158
cansat,1622290074533603023,-2,-10,0,0,39.62,101549.21,26.41,0,0,3.140337,3.806009,3.942191,3.919056,3.938492,26.338769,0.491857,0.713802,0.618376,0.697897,276,0.59643
cansat,1622290075532518648,-2,-10,0,0,39.62,101549.9,26.41,0,0,3.091461,3.746411,3.880186,3.857463,3.876552,26.28342,0.484125,0.70214,0.608432,0.686521,277,0.59643
cansat,1622290076532696773,-2,-10,0,0,39.6,101549.49,26.41,0,0,3.064782,3.713698,3.846014,3.823541,3.842419,26.063576,0.479866,0.695495,0.602842,0.680053,278,0.596706
cansat,1622290077533116408,-1,-11,0,0,39.59,101544.49,26.42,0,0,3.05634,3.703084,3.834733,3.812375,3.831154,26.118306,0.478462,0.692994,0.600842,0.677636,279,0.59711
cansat,1622290078529784376,-1,-6,1,0,39.58,101541.68,26.42,0,0,3.018993,3.657477,3.787231,3.765197,3.783703,26.008999,0.47254,0.683978,0.593182,0.668845,280,0.59711
cansat,1622290079531267396,-2,-10,0,0,39.55,101536.74,26.42,0,0,3.002393,3.63699,3.765733,3.743873,3.762231,26.394274,0.469862,0.679642,0.589587,0.664633,281,0.597787
cansat,1622290080531413906,-2,-9,0,0,39.55,101535.33,26.43,0,0,2.958977,3.584045,3.710647,3.689152,3.707203,26.228227,0.462992,0.669276,0.58075,0.654522,282,0.597787
cansat,1622290081529927135,-4,-9,0,0,39.56,101534.39,26.43,0,0,2.894264,3.505336,3.628908,3.60793,3.625546,26.118306,0.452797,0.65414,0.567759,0.639742,283,0.597787
cansat,1622290082531472395,-3,-9,-1,0,39.56,101535.21,26.43,0,0,2.856735,3.459554,3.581263,3.560603,3.57795,26.228227,0.446856,0.645154,0.560105,0.630979,284,0.596669
cansat,1622290083532691874,-2,-12,1,0,39.56,101537.98,26.44,0,0,2.88541,3.493923,3.616569,3.595752,3.61323,24.641062,0.451265,0.651084,0.565411,0.636805,285,0.595959
cansat,1622290084531301405,-2,-9,0,0,39.54,101540.78,26.44,0,0,2.923652,3.539863,3.663844,3.642803,3.660468,26.561739,0.457168,0.659153,0.57258,0.644724,286,0.594846
cansat,1622290085531268280,-2,-9,2,0,39.54,101541.59,26.45,0,0,3.013085,3.647742,3.775194,3.753566,3.771723,26.28342,0.471067,0.678698,0.589736,0.663871,287,0.592631
cansat,1622290086531298487,-4,-8,1,0,39.52,101543.27,26.46,0,0,3.055479,3.698676,3.827612,3.805734,3.8241,26.505758,0.477612,0.687652,0.597689,0.672658,288,0.592631
cansat,1622290087531245154,-3,-9,1,0,39.5,101543.32,26.46,0,0,3.059333,3.702971,3.831775,3.809922,3.828265,26.008999,0.478136,0.687953,0.598114,0.672979,289,0.592631
cansat,1622290088531156039,-4,-9,0,0,39.49,101546.03,26.47,0,0,3.075753,3.722468,3.851665,3.829747,3.848143,27.304373,0.480622,0.691069,0.60099,0.676056,290,0.591528
cansat,1622290089531228434,-4,-9,0,0,39.47,101547.78,26.47,0,0,3.058356,3.701058,3.829242,3.807498,3.825747,26.505758,0.477828,0.686617,0.597276,0.671727,291,0.591528
cansat,1622290090529632236,-5,-8,0,0,39.46,101547.06,26.48,0,0,3.013731,3.646723,3.772772,3.751393,3.769334,26.28342,0.470785,0.67609,0.588266,0.661453,292,0.591528
cansat,1622290091531266975,-4,-9,1,0,39.46,101548.43,26.48,0,0,2.94749,3.56626,3.689292,3.668426,3.685936,26.338769,0.460372,0.660757,0.575062,0.646474,293,0.591528
cansat,1622290092531092704,-3,-10,1,0,39.44,101547.24,26.48,0,0,2.908248,3.518469,3.639616,3.619073,3.636311,26.063576,0.454176,0.651485,0.567131,0.637426,294,0.590428
cansat,1622290093530168276,-3,-8,0,0,39.44,101546.48,26.49,0,0,2.84742,3.444589,3.562972,3.542898,3.559742,25.418496,0.444615,0.637417,0.555013,0.623682,295,0.590428
cansat,1622290094530182807,-4,-10,0,0,39.42,101545.31,26.49,0,0,2.813559,3.403345,3.520098,3.500303,3.516911,26.505758,0.439268,0.629407,0.548163,0.615866,296,0.590702
cansat,1622290095530486140,-4,-10,1,0,39.42,101546.03,26.5,0,0,2.758033,3.335918,3.450158,3.430791,3.44704,26.394274,0.430544,0.616585,0.537113,0.60334,297,0.590702
cansat,1622290096530084005,-4,-11,2,0,39.44,101546.06,26.5,0,0,2.685507,3.247953,3.358997,3.340173,3.355965,25.954573,0.41917,0.600001,0.522774,0.58713,298,0.590702
cansat,1622290097530060358,-4,-8,1,0,39.42,101541.78,26.5,0,0,2.687705,3.250326,3.361233,3.342434,3.358204,26.394274,0.419453,0.600054,0.522949,0.587203,299,0.589882
cansat,1622290098530218327,-4,-7,3,0,39.42,101541.42,26.51,0,0,2.662653,3.21976,3.32942,3.310833,3.326424,24.3386,0.415486,0.59405,0.517836,0.581347,300,0.589882
cansat,1622290099529806503,-4,-8,4,0,39.43,101538.65,26.51,0,0,2.61577,3.162817,3.270346,3.252122,3.267408,26.674181,0.408117,0.583206,0.508495,0.570754,301,0.589882
cansat,1622290100530072440,-3,-9,5,0,39.44,101538.32,26.52,0,0,2.551667,3.085075,3.189785,3.17204,3.186923,26.28342,0.398066,0.568558,0.495828,0.556436,302,0.589882
cansat,1622290101529928326,-1,-5,8,0,39.46,101530.09,26.52,0,0,2.474252,2.991263,3.092625,3.075449,3.089855,26.008999,0.385943,0.550981,0.480595,0.53925,303,0.589882
cansat,1622290102529898794,0,-3,9,0,39.49,101525.88,26.52,0,0,2.430738,2.938426,3.037823,3.020982,3.035105,26.394274,0.379107,0.540939,0.471939,0.529439,304,0.59056
cansat,1622290103529530148,0,0,9,0,39.51,101525.92,26.53,0,0,2.415116,2.919307,3.017879,3.001179,3.015183,27.6568,0.376621,0.537105,0.468698,0.525703,305,0.589463
cansat,1622290104529602074,0,0,10,0,39.54,101524.02,26.53,0,0,2.422254,2.927695,3.026367,3.009651,3.023668,26.228227,0.377683,0.538325,0.46987,0.526915,306,0.588369
cansat,1622290105529698168,1,0,10,0,39.58,101527.48,26.54,0,0,2.447764,2.958282,3.057797,3.04094,3.055074,26.394274,0.381608,0.543616,0.4746,0.532113,307,0.58728
cansat,1622290106529767751,1,0,9,0,39.59,101526.8,26.55,0,0,2.487933,3.006555,3.107487,3.090392,3.104725,26.063576,0.387812,0.552121,0.482147,0.540458,308,0.587561
cansat,1622290107529767021,0,0,10,0,39.61,101525.14,26.55,0,0,2.539565,3.068669,3.171473,3.154062,3.168658,26.505758,0.395801,0.563149,0.491904,0.551275,309,0.586473
cansat,1622290108529478896,1,0,9,0,39.62,101524.38,26.55,0,0,2.556045,3.088314,3.191571,3.174085,3.188744,25.954573,0.398312,0.566393,0.494857,0.55447,310,0.586473
cansat,1622290109529484625,1,0,10,0,39.63,101523.09,26.56,0,0,2.543878,3.073359,3.175923,3.158556,3.173114,26.118306,0.396362,0.563308,0.492277,0.551469,311,0.586473
cansat,1622290110529500197,1,0,10,0,39.65,101525.62,26.57,0,0,2.552561,3.083591,3.1863,3.16891,3.183486,26.28342,0.39766,0.564835,0.493728,0.552984,312,0.585389
cansat,1622290111529553947,1,0,10,0,39.66,101528.34,26.57,0,0,2.534111,3.061058,3.16283,3.1456,3.160041,26.505758,0.394734,0.560379,0.489942,0.54864,313,0.585389
cansat,1622290112529559467,1,0,10,0,39.67,101527.28,26.57,0,0,2.493858,3.012208,3.112181,3.095258,3.109442,27.775686,0.388415,0.551129,0.481958,0.5396,314,0.585389
cansat,1622290113529351446,1,0,10,0,39.68,101524.67,26.58,0,0,2.436343,2.942527,3.040026,3.023523,3.037354,24.794081,0.379412,0.538095,0.470655,0.526855,315,0.585389
cansat,1622290114529252279,1,0,10,0,39.7,101527.25,26.58,0,0,2.365416,2.856668,2.951174,2.935179,2.948583,26.228227,0.368325,0.522131,0.45678,0.511239,316,0.585389
cansat,1622290115529525195,1,0,10,0,39.71,101527.94,26.59,0,0,2.416116,2.917748,3.014162,2.997844,3.011518,26.394274,0.376188,0.533095,0.466439,0.521986,317,0.585569
cansat,1622290116529369257,1,0,10,0,39.73,101528.25,26.59,0,0,2.477015,2.991131,3.089847,3.073141,3.08714,26.394274,0.385636,0.546286,0.478053,0.534914,318,0.584487
cansat,1622290117529421653,1,0,10,0,39.74,101529.11,26.6,0,0,2.501606,3.020671,3.120244,3.103394,3.117513,26.617879,0.389432,0.551473,0.482662,0.540005,319,0.584487
cansat,1622290118529086340,1,0,9,0,39.75,101528.56,26.61,0,0,2.540525,3.067485,3.168463,3.151376,3.165693,24.794081,0.395452,0.559777,0.490011,0.548149,320,0.585163
cansat,1622290119529439360,0,-1,10,0,39.76,101534.12,26.61,0,0,2.546677,3.07474,3.175827,3.158723,3.173054,26.84406,0.396373,0.560869,0.491045,0.549231,321,0.585164
cansat,1622290120529266339,1,0,9,0,39.78,101528.42,26.61,0,0,2.570201,3.102961,3.204836,3.187599,3.20204,26.394274,0.399995,0.565771,0.495419,0.554046,322,0.584083
cansat,1622290121529139776,1,1,10,0,39.79,101528.86,26.62,0,0,2.563584,3.0948,3.196276,3.179109,3.193491,26.561739,0.398929,0.564052,0.493991,0.552374,323,0.584083
cansat,1622290122529499099,0,0,10,0,39.81,101527.18,26.63,0,0,2.532615,3.057251,3.157373,3.140435,3.154625,25.900298,0.394075,0.55699,0.48788,0.545472,324,0.584083
cansat,1622290123529267171,1,0,10,0,39.82,101529.05,26.62,0,0,2.482224,2.996271,3.094282,3.077702,3.091591,25.103783,0.386203,0.545677,0.478039,0.534404,325,0.584083
cansat,1622290124529295973,1,0,9,0,39.82,101529.37,26.63,0,0,2.504587,3.02309,3.121844,3.105139,3.119132,26.228227,0.389645,0.550325,0.48219,0.538969,326,0.581935
cansat,1622290125529061129,1,1,9,0,39.83,101528.4,26.64,0,0,2.541682,3.067679,3.167748,3.150822,3.164999,26.561739,0.395376,0.558192,0.489168,0.546688,327,0.580864
cansat,1622290126530740556,1,0,10,0,39.84,101528.19,26.64,0,0,2.590345,3.126218,3.228048,3.210826,3.225251,26.674181,0.402905,0.568582,0.498361,0.556878,328,0.579798
cansat,1622290127529274045,1,0,9,0,39.85,101526.39,26.65,0,0,2.691887,3.248557,3.354212,3.336344,3.351309,26.617879,0.418654,0.59055,0.517711,0.578409,329,0.580359
cansat,1622290128528849878,1,0,9,0,39.85,101522.68,26.65,0,0,2.747265,3.315182,3.42285,3.404643,3.419891,26.561739,0.427223,0.602387,0.528181,0.590019,330,0.580359
cansat,1622290129528812638,1,0,9,0,39.86,101525.27,26.66,0,0,2.764686,3.336011,3.444207,3.425912,3.441233,26.394274,0.429891,0.60591,0.531358,0.593485,331,0.580359
cansat,1622290130527336752,1,0,10,0,39.87,101526.67,26.67,0,0,2.795202,3.372628,3.481854,3.463386,3.478852,26.561739,0.434592,0.612283,0.53704,0.599743,332,0.580763
cansat,1622290131528927845,1,0,9,0,39.88,101527.42,26.67,0,0,2.880037,3.474759,3.58712,3.568124,3.584031,26.674181,0.447734,0.630519,0.553138,0.617622,333,0.579983
cansat,1622290132529364980,1,0,9,0,39.88,101524.25,26.67,0,0,2.919999,3.522755,3.636502,3.617272,3.633373,24.74294,0.4539,0.638934,0.56062,0.625881,334,0.579983
cansat,1622290133528555657,1,0,10,0,39.89,101526.17,26.68,0,0,2.923207,3.526418,3.640124,3.620903,3.636997,24.23882,0.454355,0.639318,0.561051,0.626273,335,0.579983
cansat,1622290134528526803,1,0,9,0,39.9,101528.07,26.68,0,0,2.940639,3.547231,3.661444,3.642138,3.658302,26.338769,0.457018,0.6428,0.564206,0.629701,336,0.578919
cansat,1622290135529128156,1,0,10,0,39.9,101527.63,26.69,0,0,2.925388,3.52863,3.642088,3.622912,3.638967,26.561739,0.454605,0.639155,0.561099,0.626145,337,0.578919
cansat,1622290136528800916,0,0,10,0,39.92,101527.91,26.69,0,0,2.927849,3.531389,3.644774,3.625612,3.641654,26.561739,0.454942,0.63937,0.561384,0.626372,338,0.577858
cansat,1622290137527527947,1,0,10,0,39.93,101529.34,26.7,0,0,2.988574,3.604486,3.72011,3.70057,3.716927,28.076066,0.464347,0.652411,0.5729,0.639159,339,0.577778
cansat,1622290138528361384,1,0,9,0,39.94,101529.22,26.7,0,0,3.007901,3.627661,3.743923,3.724275,3.740722,26.561739,0.467321,0.65642,0.576483,0.643097,340,0.577778
cansat,1622290139528501384,0,0,10,0,39.94,101529.41,26.71,0,0,3.037552,3.663268,3.780556,3.760736,3.777327,26.338769,0.471896,0.662658,0.582031,0.64922,341,0.578184
cansat,1622290140526977425,1,0,9,0,39.94,101527.31,26.71,0,0,3.03122,3.655488,3.772416,3.752658,3.769196,26.561739,0.470881,0.661056,0.580689,0.647661,342,0.578184
cansat,1622290141528542842,1,1,9,0,39.96,101526.28,26.72,0,0,2.9958,3.612638,3.728092,3.708584,3.724912,26.617879,0.46535,0.653124,0.573784,0.639901,343,0.578184
cansat,1622290142528641747,1,0,9,0,39.96,101525.84,26.72,0,0,2.98125,3.594925,3.709686,3.690296,3.706525,24.948315,0.463054,0.649697,0.570849,0.636555,344,0.578857
cansat,1622290143528519976,1,0,10,0,39.97,101522.65,26.72,0,0,2.939676,3.544636,3.657672,3.638575,3.654559,27.597624,0.456564,0.640398,0.56275,0.627456,345,0.578857
cansat,1622290144529003153,1,2,9,0,39.98,101524.37,26.73,0,0,2.920674,3.521568,3.63375,3.614798,3.63066,26.617879,0.45358,0.63602,0.558975,0.623179,346,0.579146
cansat,1622290145528014611,0,0,9,0,39.99,101522.14,26.73,0,0,2.876098,3.467676,3.57803,3.559387,3.574989,26.674181,0.446626,0.626091,0.550314,0.613461,347,0.579146
cansat,1622290146528225131,1,0,9,0,39.99,101524.54,26.74,0,0,2.987442,3.601769,3.716275,3.696933,3.71312,26.394274,0.463884,0.650097,0.571484,0.636994,348,0.58137
cansat,1622290147526788048,0,0,9,0,40,101522.47,26.75,0,0,3.047789,3.67438,3.791082,3.771369,3.787865,28.197504,0.473223,0.663005,0.582898,0.649653,349,0.58137
cansat,1622290149528081380,1,0,10,0,40.01,101525.85,26.76,0,0,3.173924,3.826108,3.947371,3.926891,3.944029,26.505758,0.492736,0.689926,0.606722,0.676058,351,0.579237
cansat,1622290150526828515,0,0,9,0,40.02,101523.05,26.76,0,0,3.19376,3.849854,3.971741,3.951156,3.968381,26.78727,0.49578,0.693982,0.610366,0.680046,352,0.579237
cansat,1622290151529008827,0,0,9,0,40.02,101524.5,26.77,0,0,3.177917,3.830598,3.951756,3.931295,3.948415,26.338769,0.493287,0.690298,0.607198,0.676448,353,0.579237
cansat,1622290152528446483,1,0,10,0,40.03,101526.35,26.78,0,0,3.133328,3.776703,3.896044,3.87589,3.892752,26.394274,0.486335,0.680387,0.598547,0.666746,354,0.579237
cansat,1622290153528146952,0,0,10,0,40.03,101524.81,26.78,0,0,3.109981,3.748405,3.866731,3.84675,3.863468,25.471446,0.482677,0.675077,0.593948,0.661555,355,0.578175
cansat,1622290154528237472,1,0,10,0,40.05,101526.14,26.79,0,0,3.104079,3.741126,3.859095,3.839176,3.855841,26.78727,0.481726,0.673541,0.592673,0.660063,356,0.577116
cansat,1622290155526985909,1,0,10,0,40.05,101524.77,26.79,0,0,3.068284,3.697827,3.814312,3.794644,3.811098,26.730644,0.476138,0.665534,0.5857,0.652228,357,0.577116
cansat,1622290156547860961,1,0,9,0,40.05,101524.55,26.79,0,0,3.008627,3.625784,3.739888,3.720623,3.73674,26.674181,0.466849,0.652371,0.574183,0.63934,358,0.577116
cansat,1622290157527866846,0,0,9,0,40.06,101523.48,26.8,0,0,2.930235,3.531178,3.642201,3.623457,3.639138,28.566344,0.454656,0.635167,0.559103,0.62249,359,0.577116
cansat,1622290158528039762,0,0,10,0,40.07,101524.4,26.8,0,0,2.837451,3.41924,3.526649,3.508517,3.523685,27.775686,0.440233,0.614865,0.541289,0.602602,360,0.577116
cansat,1622290159527334345,0,0,10,0,40.09,101525.02,26.81,0,0,2.733931,3.294381,3.397782,3.380327,3.394928,26.674181,0.424148,0.592259,0.52144,0.580456,361,0.577116
cansat,1622290160530435126,0,0,9,0,40.09,101524.85,26.82,0,0,2.622751,3.160306,3.259419,3.242689,3.256683,26.78727,0.406877,0.568016,0.500143,0.556703,362,0.577116
cansat,1622290161530030803,1,0,9,0,40.1,101526.61,26.82,0,0,2.506474,3.020104,3.114749,3.098773,3.112136,26.394274,0.388819,0.54269,0.477887,0.531889,363,0.577116
cansat,1622290162530208250,1,0,9,0,40.11,101526.23,26.83,0,0,2.431355,2.929473,3.021187,3.005706,3.018655,24.794081,0.377141,0.526244,0.463459,0.51578,364,0.577399
cansat,1622290163530053823,0,0,10,0,40.12,101525.45,26.83,0,0,2.390223,2.879864,2.969987,2.954775,2.967498,26.561739,0.37075,0.517266,0.455575,0.506984,365,0.578376
cansat,1622290164530269656,1,0,9,0,40.13,101524.29,26.83,0,0,2.333009,2.810883,2.898813,2.883972,2.896385,26.674181,0.361866,0.504814,0.44463,0.494783,366,0.578376
cansat,1622290165530417155,1,0,10,0,40.15,101525.98,26.85,0,0,2.26334,2.726902,2.812173,2.797781,2.809818,26.617879,0.351051,0.489675,0.431315,0.479948,367,0.578376
cansat,1622290166531315957,0,0,9,0,40.15,101524.51,26.85,0,0,2.184279,2.63161,2.713871,2.699988,2.7116,26.901014,0.33878,0.472511,0.416214,0.463128,368,0.578376
cansat,1622290167527773405,1,0,9,0,40.16,101523.7,26.85,0,0,2.0984,2.528109,2.607108,2.593775,2.604926,27.895292,0.325453,0.45388,0.399819,0.44487,369,0.578376
cansat,1622290168534736477,1,0,10,0,40.17,101522.87,26.85,0,0,2.007857,2.418992,2.494557,2.481804,2.49247,26.617879,0.311403,0.434247,0.382539,0.425629,370,0.578376
cansat,1622290169531226737,1,0,9,0,40.17,101521.63,26.86,0,0,1.914441,2.306419,2.378445,2.366289,2.376456,26.730644,0.296909,0.413999,0.364715,0.405785,371,0.578376
cansat,1622290170536658924,0,0,10,0,40.2,101524.42,26.87,0,0,1.907835,2.298418,2.370161,2.358053,2.36818,26.84406,0.295875,0.412505,0.363419,0.404324,372,0.577611
cansat,1622290171528398663,0,0,10,0,40.19,101522.6,26.88,0,0,1.927522,2.322081,2.394522,2.382297,2.392521,26.901014,0.298917,0.416679,0.367121,0.408419,373,0.578016
cansat,1622290172528144653,0,0,9,0,40.21,101521.38,26.88,0,0,1.968329,2.371162,2.445075,2.432602,2.443033,26.84406,0.305228,0.425381,0.374824,0.416954,374,0.578689
cansat,1622290173528383090,1,0,10,0,40.22,101522.08,26.89,0,0,1.981714,2.387212,2.461568,2.449021,2.459513,25.954573,0.307288,0.428159,0.377307,0.419683,375,0.578689
cansat,1622290174527418454,1,0,9,0,40.23,101524.49,26.9,0,0,1.972751,2.376344,2.450308,2.437827,2.448264,26.674181,0.305883,0.426114,0.375537,0.417685,376,0.578689
cansat,1622290175527284495,0,0,9,0,40.24,101520.92,26.89,0,0,1.945774,2.343782,2.416681,2.404381,2.414667,26.84406,0.301686,0.420186,0.370343,0.411879,377,0.578689
cansat,1622290176527579911,0,0,10,0,40.25,101521.96,26.9,0,0,1.948607,2.347107,2.420041,2.407735,2.418025,26.84406,0.302107,0.420662,0.370804,0.412352,378,0.578974
cansat,1622290177527187047,0,0,9,0,40.26,101522.15,26.91,0,0,1.97555,2.379463,2.45333,2.440867,2.451288,28.628489,0.306263,0.426331,0.375846,0.417917,379,0.577913
cansat,1622290178527174182,0,1,9,0,40.27,101525.68,26.91,0,0,2.261326,2.72351,2.807937,2.793694,2.805603,25,0.350533,0.487763,0.430075,0.478148,380,0.57516
cansat,1622290179527413348,1,1,9,0,40.28,101525.1,26.92,0,0,2.571557,3.096951,3.192805,3.176636,3.190155,26.78727,0.398581,0.554379,0.488903,0.543466,381,0.573067
cansat,1622290180527606785,0,0,10,0,40.29,101523.46,26.92,0,0,2.75632,3.319264,3.421846,3.404543,3.419009,26.901014,0.427176,0.593905,0.523853,0.582229,382,0.573067
cansat,1622290181527581264,0,0,9,0,40.29,101524.32,26.93,0,0,2.862954,3.447479,3.553873,3.535928,3.55093,26.78727,0.44366,0.61658,0.543944,0.604474,383,0.573067
cansat,1622290182527220586,0,0,10,0,40.31,101525.52,26.93,0,0,2.920742,3.516874,3.625264,3.606984,3.622265,26.84406,0.452575,0.628733,0.554754,0.616403,384,0.573067
cansat,1622290183527292305,0,0,10,0,40.31,101524.55,26.94,0,0,2.98253,3.591069,3.70159,3.682952,3.698531,24.74294,0.462105,0.641721,0.566309,0.629152,385,0.573477
cansat,1622290184527053190,1,0,9,0,40.32,101525.24,26.95,0,0,3.002793,3.615271,3.726386,3.707649,3.723311,26.674181,0.465203,0.645782,0.569982,0.633148,386,0.573477
cansat,1622290185526276262,1,0,9,0,40.32,101528.43,26.96,0,0,2.98921,3.598733,3.709199,3.690572,3.706141,26.84406,0.46306,0.642578,0.56724,0.630021,387,0.573477
cansat,1622290186527887356,1,0,10,0,40.34,101527.5,26.96,0,0,2.948343,3.549359,3.658177,3.639829,3.655164,26.958133,0.456692,0.633527,0.559331,0.621161,388,0.573477
cansat,1622290187528389230,0,0,10,0,40.34,101525.72,26.97,0,0,2.974117,3.580174,3.689775,3.671297,3.68674,26.008999,0.460639,0.638741,0.564033,0.626289,389,0.574446
cansat,1622290188527733969,1,0,10,0,40.35,101527.07,26.98,0,0,2.965288,3.569346,3.678462,3.660067,3.67544,26.84406,0.459229,0.636538,0.562181,0.624145,390,0.574446
cansat,1622290189527766782,1,2,9,0,40.36,101528.15,26.98,0,0,2.972708,3.578048,3.687255,3.668846,3.68423,26.78727,0.46033,0.63778,0.563384,0.625381,391,0.575121
cansat,1622290190525043969,0,0,10,0,40.37,101521.65,26.98,0,0,2.949027,3.54933,3.657495,3.639263,3.654497,26.901014,0.456617,0.632369,0.558705,0.620091,392,0.575121
cansat,1622290191527792250,0,0,10,0,40.38,101520.94,26.99,0,0,2.900386,3.490585,3.596805,3.578902,3.593861,26.958133,0.449042,0.62163,0.54931,0.609577,393,0.575121
cansat,1622290192527870999,0,0,9,0,40.38,101519.1,26.99,0,0,2.832007,3.408104,3.511672,3.494217,3.508801,27.246242,0.438416,0.606689,0.536194,0.594939,394,0.575121
cansat,1622290193525030374,1,0,9,0,40.4,101521.32,27,0,0,2.748321,3.307221,3.407591,3.390677,3.404808,26.901014,0.425424,0.588497,0.520196,0.577113,395,0.575121
cansat,1622290194527532509,1,0,9,0,40.4,101518.98,27,0,0,2.653068,3.19244,3.289205,3.2729,3.286522,26.84406,0.410646,0.567859,0.502027,0.556886,396,0.575121
cansat,1622290195527335008,0,0,9,0,40.4,101520.33,27.01,0,0,2.549396,3.067547,3.160416,3.144768,3.157841,26.901014,0.394569,0.545448,0.482282,0.53492,397,0.575121
cansat,1622290196527489435,1,0,9,0,40.42,101520.86,27.02,0,0,2.439939,2.935713,3.02449,3.009533,3.022028,26.561739,0.3776,0.521829,0.461459,0.511767,398,0.575121
cansat,1622290197527319747,0,0,10,0,40.43,101522.84,27.02,0,0,2.326889,2.799573,2.884143,2.869895,2.881797,28.381068,0.360079,0.497469,0.439973,0.487886,399,0.575121
cansat,1622290198527139799,0,0,9,0,40.43,101522.14,27.03,0,0,2.212057,2.661307,2.741618,2.728088,2.739389,26.28342,0.342287,0.472755,0.418165,0.463656,400,0.575121
cansat,1622290199527386153,1,0,10,0,40.44,101523.6,27.04,0,0,2.141141,2.575862,2.653499,2.640421,2.651345,26.901014,0.331287,0.457407,0.404647,0.448613,401,0.5758
cansat,1622290200525182142,1,0,10,0,40.45,101524.18,27.04,0,0,2.062299,2.480898,2.555584,2.543004,2.553512,26.84406,0.319063,0.440388,0.389645,0.431931,402,0.5758
cansat,1622290201527690683,1,0,10,0,40.46,101523.01,27.04,0,0,1.977824,2.379171,2.450715,2.438665,2.44873,26.730644,0.305972,0.422189,0.373592,0.414089,403,0.5758
cansat,1622290202526517402,1,0,9,0,40.48,101524.85,27.05,0,0,1.93383,2.326142,2.39601,2.384242,2.39407,27.015419,0.299143,0.412634,0.365187,0.404726,404,0.574749
cansat,1622290203525124641,1,0,10,0,40.49,101522.28,27.06,0,0,1.92309,2.313097,2.382476,2.370792,2.38055,25.52454,0.297455,0.410149,0.363047,0.402298,405,0.575036
cansat,1622290204526474588,1,0,9,0,40.49,101524.41,27.07,0,0,1.939386,2.332568,2.402431,2.390666,2.40049,26.901014,0.299948,0.413424,0.366007,0.405521,406,0.573987
cansat,1622290205526664223,1,0,10,0,40.49,101522.8,27.07,0,0,1.933215,2.325021,2.394563,2.382853,2.392631,27.015419,0.298967,0.411919,0.364732,0.404054,407,0.573987
cansat,1622290206526643338,1,0,9,0,40.5,101521.83,27.08,0,0,1.953117,2.348828,2.418983,2.407171,2.417034,26.730644,0.302017,0.415962,0.368373,0.408031,408,0.572942
cansat,1622290207526219118,1,1,9,0,40.51,101525.88,27.09,0,0,1.949728,2.34463,2.414567,2.402793,2.412623,25,0.301467,0.415054,0.367626,0.407149,409,0.572942
cansat,1622290208526552243,1,0,9,0,40.51,101525.17,27.09,0,0,1.927505,2.317791,2.386839,2.375215,2.38492,25.418496,0.298007,0.410148,0.363333,0.402345,410,0.572942
cansat,1622290209526135211,1,0,10,0,40.52,101526.5,27.1,0,0,1.890244,2.272879,2.340507,2.329123,2.338627,26.84406,0.292223,0.402056,0.356215,0.394415,411,0.572942
cansat,1622290210525314378,1,0,9,0,40.53,101525.57,27.11,0,0,1.885416,2.266949,2.334305,2.322968,2.332433,27.015419,0.29145,0.400838,0.355195,0.393231,412,0.573622
cansat,1622290211526170836,1,0,9,0,40.54,101525.67,27.11,0,0,1.86267,2.239483,2.305934,2.294749,2.304086,27.597624,0.287909,0.395823,0.350806,0.38832,413,0.573622
cansat,1622290212526230835,1,0,9,0,40.54,101526.82,27.12,0,0,1.825634,2.194846,2.259889,2.248942,2.25808,25.260504,0.282161,0.387786,0.343734,0.380444,414,0.573622
cansat,1622290213524657137,1,0,9,0,40.55,101527.19,27.12,0,0,1.777392,2.136746,2.19999,2.189347,2.198231,27.304373,0.274684,0.377385,0.334561,0.370247,415,0.573622
cansat,1622290214526292866,1,0,10,0,40.56,101527.02,27.13,0,0,1.781222,2.141112,2.204303,2.19367,2.202544,26.901014,0.275225,0.377833,0.335071,0.370706,416,0.57326
cansat,1622290215526112345,1,0,9,0,40.57,101526.81,27.14,0,0,1.86524,2.241952,2.308,2.296888,2.306162,26.84406,0.288174,0.395419,0.350739,0.387972,417,0.574357
cansat,1622290216524735313,1,0,9,0,40.57,101525.09,27.14,0,0,1.91468,2.301225,2.368904,2.357519,2.36702,27.188283,0.29578,0.405669,0.359902,0.398041,418,0.574357
cansat,1622290217525888542,1,0,9,0,40.58,101526.58,27.14,0,0,2.023982,2.432542,2.504043,2.492015,2.502053,26.84406,0.312654,0.428748,0.380401,0.42069,419,0.576277
cansat,1622290218525851562,1,0,10,0,40.58,101526.58,27.15,0,0,2.136546,2.567765,2.643194,2.630506,2.641093,27.188283,0.330029,0.452497,0.401502,0.443998,420,0.575225
cansat,1622290219525863801,1,0,10,0,40.59,101526.57,27.16,0,0,2.206373,2.651624,2.72947,2.716375,2.727302,26.958133,0.340803,0.467192,0.414569,0.458421,421,0.575225
cansat,1622290220524123176,1,0,10,0,40.6,101526.81,27.17,0,0,2.240883,2.693039,2.772054,2.758763,2.769854,27.130493,0.34612,0.474409,0.421001,0.465507,422,0.575225
cansat,1622290221525974217,1,0,9,0,40.61,101526.04,27.17,0,0,2.246438,2.699658,2.778824,2.765508,2.776619,27.072872,0.346966,0.475498,0.421995,0.46658,423,0.575225
cansat,1622290222526006248,1,0,9,0,40.61,101525.36,27.18,0,0,2.228482,2.678026,2.756517,2.743315,2.754331,26.28342,0.344182,0.471616,0.418574,0.462776,424,0.575225
cansat,1622290223525705414,1,0,10,0,40.62,101524.61,27.19,0,0,2.235924,2.686907,2.765611,2.752374,2.763419,26.84406,0.345318,0.473096,0.419917,0.464233,425,0.574175
cansat,1622290224524786612,1,0,9,0,40.63,101525.73,27.19,0,0,2.263867,2.720417,2.800048,2.786655,2.79783,27.015419,0.349618,0.4789,0.425102,0.469934,426,0.573129
cansat,1622290225526277809,1,0,10,0,40.63,101526.16,27.2,0,0,2.263876,2.72036,2.799938,2.786554,2.79772,27.4798,0.349606,0.478799,0.425044,0.469839,427,0.573129
cansat,1622290226525939788,1,0,10,0,0,110000,-40,0,0,2.263876,2.72036,2.799938,2.786554,2.79772,26.84406,0.349606,0.478799,0.425044,0.469839,428,0.573129
cansat,1622290228026539371,1053,-1285,650,0,0,110000,-40,0,0,2.263876,2.72036,2.799938,2.786554,2.79772,26.84406,0.349606,0.478799,0.425044,0.469839,429,0.573129
cansat,1622290229026570777,1053,-1285,650,0,0,110000,-40,0,0,2.263876,2.72036,2.799938,2.786554,2.79772,27.188283,0.349606,0.478799,0.425044,0.469839,430,0.573129
cansat,1622290230026718120,1053,-1285,650,0,0,110000,-40,0,0,2.263876,2.72036,2.799938,2.786554,2.79772,27.130493,0.349606,0.478799,0.425044,0.469839,431,0.573129
cansat,1622290231027220568,1053,-1285,650,0,0,110000,-40,0,0,2.263876,2.72036,2.799938,2.786554,2.79772,27.246242,0.349606,0.478799,0.425044,0.469839,432,0.573129
cansat,1622290232027407234,1053,-1285,650,0,0,110000,-40,0,0,2.263876,2.72036,2.799938,2.786554,2.79772,27.188283,0.349606,0.478799,0.425044,0.469839,433,0.573129
cansat,1622290233027474005,1053,-1285,650,0,0,110000,-40,0,0,2.263876,2.72036,2.799938,2.786554,2.79772,27.304373,0.349606,0.478799,0.425044,0.469839,434,0.573129
cansat,1622290234027030515,1053,-1285,650,0,0,110000,-40,0,0,2.263876,2.72036,2.799938,2.786554,2.79772,27.015419,0.349606,0.478799,0.425044,0.469839,435,0.573129
cansat,1622290235025829264,1053,-1285,650,0,0,110000,-40,0,0,2.263876,2.72036,2.799938,2.786554,2.79772,26.958133,0.349606,0.478799,0.425044,0.469839,436,0.573129
cansat,1622290236526660930,1053,-1285,650,0,0,110000,-40,0,0,2.263876,2.72036,2.799938,2.786554,2.79772,27.246242,0.349606,0.478799,0.425044,0.469839,437,0.573129
cansat,1622290237526510669,1053,-1285,650,0,0,110000,-40,0,0,2.263876,2.72036,2.799938,2.786554,2.79772,26.958133,0.349606,0.478799,0.425044,0.469839,438,0.573129
cansat,1622290238526001919,1053,-1285,650,0,0,110000,-40,0,0,2.263876,2.72036,2.799938,2.786554,2.79772,27.015419,0.349606,0.478799,0.425044,0.469839,439,0.573129
cansat,1622290239525959679,1053,-1285,650,0,0,110000,-40,0,0,2.263876,2.72036,2.799938,2.786554,2.79772,27.304373,0.349606,0.478799,0.425044,0.469839,440,0.573129
cansat,1622290240526421918,1053,-1285,650,0,0,110000,-40,0,0,2.263876,2.72036,2.799938,2.786554,2.79772,26.901014,0.349606,0.478799,0.425044,0.469839,441,0.573129
cansat,1622290241526116449,1053,-1285,650,0,0,110000,-40,0,0,2.263876,2.72036,2.799938,2.786554,2.79772,26.901014,0.349606,0.478799,0.425044,0.469839,442,0.573129
cansat,1622290242526364626,1053,-1285,650,0,0,110000,-40,0,0,2.263876,2.72036,2.799938,2.786554,2.79772,27.362676,0.349606,0.478799,0.425044,0.469839,443,0.573129
cansat,1622290243525943948,1053,-1285,650,0,0,110000,-40,0,0,2.263876,2.72036,2.799938,2.786554,2.79772,27.246242,0.349606,0.478799,0.425044,0.469839,445,0.573129
cansat,1622290244525347177,1053,-1285,650,0,0,110000,-40,0,0,2.263876,2.72036,2.799938,2.786554,2.79772,27.015419,0.349606,0.478799,0.425044,0.469839,446,0.573129
cansat,1622290246023872541,1053,-1285,650,0,0,110000,-40,0,0,2.263876,2.72036,2.799938,2.786554,2.79772,27.015419,0.349606,0.478799,0.425044,0.469839,447,0.573129
cansat,1622290247026213530,1053,-1285,650,0,0,110000,-40,0,0,2.263876,2.72036,2.799938,2.786554,2.79772,27.246242,0.349606,0.478799,0.425044,0.469839,448,0.573129
cansat,1622290250024961446,1,0,9,0,40.78,101525.46,27.36,0,0,2.414198,2.900372,2.984742,2.970557,2.982389,27.597624,0.372688,0.509643,0.452718,0.500156,448,0.575432
cansat,1622290251024493425,1053,-1285,650,0,40.78,101527.09,27.36,0,0,2.432399,2.92224,3.007248,2.992956,3.004878,27.246242,0.375498,0.513489,0.456133,0.50393,449,0.575432
cansat,1622290252024618372,1,0,9,0,40.79,101526.6,27.37,0,0,2.422816,2.910731,2.995405,2.981169,2.993044,27.362676,0.374019,0.51147,0.454338,0.501948,450,0.575432
cansat,1622290253024533528,1,0,9,0,40.79,101527.65,27.37,0,0,2.390826,2.8723,2.955859,2.94181,2.953529,27.304373,0.369081,0.504721,0.448341,0.495324,451,0.575432
cansat,1622290254024723059,1,0,9,0,40.79,101526.46,27.38,0,0,2.473876,2.972019,3.058435,3.043907,3.056026,27.304373,0.38189,0.522167,0.463865,0.512449,452,0.575474
cansat,1622290255025196861,1,0,10,0,40.79,101526.8,27.39,0,0,2.560705,3.076264,3.165659,3.15063,3.163166,27.015419,0.395279,0.540389,0.480085,0.530338,453,0.574424
cansat,1622290256024613735,1,0,9,0,40.76,101525.13,27.39,0,0,2.605445,3.129945,3.220849,3.205567,3.218313,27.362676,0.402171,0.549729,0.488414,0.53951,454,0.574424
cansat,1622290257024597797,1,0,9,0,40.76,101526.35,27.4,0,0,2.659954,3.195329,3.288057,3.272469,3.28547,27.246242,0.410564,0.56108,0.498545,0.550657,455,0.574714
cansat,1622290258023055245,1,0,10,0,40.76,101526.17,27.41,0,0,2.677526,3.216344,3.30961,3.293932,3.307008,27.4798,0.413256,0.564643,0.501756,0.554161,456,0.574714
cansat,1622290259024592484,1,0,9,0,40.75,101525.48,27.41,0,0,2.709297,3.254401,3.348687,3.332839,3.346056,26.958133,0.418137,0.571178,0.507614,0.560583,457,0.575122
cansat,1622290260024495609,0,0,10,0,40.76,101524.12,27.42,0,0,2.796574,3.359082,3.456283,3.439946,3.453571,27.246242,0.431574,0.58934,0.523829,0.578422,458,0.574368
cansat,1622290261024407275,1,0,9,0,40.76,101527.04,27.42,0,0,2.927933,3.516682,3.618303,3.601224,3.615467,27.304373,0.451807,0.616744,0.548272,0.605332,459,0.572279
cansat,1622290262024603368,0,0,9,0,40.77,101524.88,27.43,0,0,3.005099,3.609185,3.713344,3.69584,3.710436,27.421151,0.463676,0.632726,0.562564,0.621032,460,0.572279
cansat,1622290263024430556,1,0,9,0,40.78,101524.43,27.44,0,0,3.081921,3.70124,3.807894,3.789972,3.804916,27.246242,0.475485,0.64858,0.576759,0.63661,461,0.572968
cansat,1622290264024611232,1,0,10,0,40.78,101528.5,27.45,0,0,3.113369,3.738807,3.846389,3.828313,3.843385,27.538624,0.480294,0.65489,0.582466,0.642819,462,0.572968
cansat,1622290265024646492,1,0,10,0,40.78,101527.36,27.46,0,0,3.107744,3.73186,3.839096,3.821079,3.836101,27.246242,0.479386,0.653414,0.581244,0.641386,463,0.572968
cansat,1622290266024412690,1,0,10,0,40.78,101528.79,27.47,0,0,3.116482,3.742133,3.849497,3.83146,3.846497,27.246242,0.480687,0.654917,0.582684,0.642878,464,0.573659
cansat,1622290267024357012,1,0,10,0,40.78,101525.22,27.47,0,0,3.092428,3.713046,3.819417,3.801548,3.816445,27.4798,0.476933,0.649548,0.578004,0.637623,465,0.573659
cansat,1622290268024158522,1,0,9,0,40.79,101522.94,27.48,0,0,3.04205,3.652364,3.75685,3.7393,3.75393,27.304373,0.469123,0.638672,0.568418,0.626963,466,0.573659
cansat,1622290269022968522,1,0,9,0,40.78,101525.14,27.49,0,0,3.01507,3.619864,3.723337,3.705958,3.720445,27.421151,0.464939,0.632843,0.563281,0.621249,467,0.574616
cansat,1622290270024043678,1,0,9,0,40.78,101526.3,27.49,0,0,2.96308,3.557345,3.658954,3.641889,3.656114,27.6568,0.456901,0.621777,0.553479,0.610393,468,0.574616
cansat,1622290271024055136,1,0,10,0,40.78,101523.94,27.49,0,0,2.89135,3.471135,3.570211,3.553572,3.567441,27.362676,0.44582,0.606582,0.539998,0.595484,469,0.574616
cansat,1622290272023940656,1,0,9,0,40.79,101522.86,27.5,0,0,2.804345,3.366598,3.462624,3.446497,3.459939,27.4798,0.432387,0.588198,0.523672,0.577443,470,0.574616
cansat,1622290273024098312,0,0,10,0,40.79,101521.2,27.51,0,0,2.705836,3.24826,3.34085,3.325301,3.338261,27.538624,0.417181,0.567415,0.505207,0.557047,471,0.574616
cansat,1622290274024240447,1,0,10,0,40.79,101523.8,27.52,0,0,2.643232,3.173098,3.263539,3.248351,3.26101,27.304373,0.407527,0.554275,0.493511,0.544147,472,0.575575
cansat,1622290275024105916,1,0,10,0,40.79,101522.12,27.52,0,0,2.566092,3.080486,3.168282,3.153538,3.165827,27.421151,0.395632,0.538087,0.479102,0.528256,473,0.575575
cansat,1622290276023977374,1,0,10,0,40.79,101520.89,27.53,0,0,2.522298,3.027877,3.114146,3.099659,3.111733,27.246242,0.388873,0.528849,0.470893,0.519189,474,0.576267
cansat,1622290277024011071,1,0,9,0,40.8,101523.29,27.54,0,0,2.55029,3.061404,3.148569,3.133932,3.146131,27.4798,0.393172,0.5346,0.476051,0.524842,475,0.575909
cansat,1622290278023846748,0,0,10,0,40.79,101523.5,27.54,0,0,2.547475,3.057951,3.144962,3.130352,3.142528,27.362676,0.392723,0.533899,0.475461,0.524159,476,0.575909
cansat,1622290279023794664,1,0,9,0,40.8,101523.59,27.55,0,0,2.519731,3.024579,3.110588,3.096146,3.108182,27.362676,0.388431,0.527979,0.470222,0.518353,477,0.575909
cansat,1622290280023694924,1,0,10,0,40.8,101524.98,27.56,0,0,2.47207,2.967305,3.051636,3.037477,3.049277,27.421151,0.38107,0.517895,0.461271,0.508457,478,0.575909
cansat,1622290281024388726,1,0,9,0,40.8,101522.73,27.56,0,0,2.408751,2.891242,2.973366,2.959578,2.971069,27.421151,0.371297,0.504539,0.449403,0.49535,479,0.575909
cansat,1622290282024388465,1,0,10,0,40.81,101523.42,27.57,0,0,2.328817,2.795169,2.874465,2.861153,2.872247,27.421151,0.358948,0.4876,0.434376,0.478729,480,0.574858
cansat,1622290283024875913,1,0,10,0,40.81,101524.48,27.58,0,0,2.310266,2.772832,2.851442,2.838244,2.849241,27.597624,0.356074,0.483608,0.430854,0.474815,481,0.57381
cansat,1622290284025141954,1,0,10,0,40.81,101522.34,27.59,0,0,2.272147,2.727015,2.804275,2.791305,2.802112,27.421151,0.350185,0.475528,0.423686,0.466887,482,0.573809
cansat,1622290285024192631,0,0,10,0,40.81,101523.14,27.59,0,0,2.218557,2.662635,2.738024,2.725369,2.735914,27.4798,0.341912,0.464219,0.413639,0.455789,483,0.57381
cansat,1622290286023508932,1,0,9,0,40.81,101524.51,27.6,0,0,2.197335,2.63708,2.711681,2.699159,2.709593,27.362676,0.338624,0.459649,0.409607,0.451308,484,0.574105
cansat,1622290287023515390,1,0,9,0,40.82,101523.54,27.61,0,0,2.158183,2.590014,2.663223,2.650935,2.661173,27.421151,0.332573,0.451338,0.402239,0.443155,485,0.574104
cansat,1622290288023446848,1,0,9,0,40.81,101524.37,27.61,0,0,2.149247,2.579205,2.652043,2.639818,2.650003,27.188283,0.331178,0.449339,0.400498,0.441198,486,0.573059
cansat,1622290289023476483,1,0,9,0,40.81,101526.85,27.62,0,0,2.120529,2.544662,2.616463,2.604412,2.614452,27.597624,0.326736,0.443213,0.395076,0.43519,487,0.573058
cansat,1622290290023256639,1,0,9,0,40.82,101524.19,27.63,0,0,2.076072,2.491239,2.561476,2.549688,2.559509,27.304373,0.31987,0.433807,0.386727,0.42596,488,0.573059
cansat,1622290291023292732,1,0,9,0,40.82,101523.59,27.64,0,0,2.01931,2.423057,2.491319,2.479863,2.489407,27.4798,0.31111,0.421842,0.376093,0.414217,489,0.573058
cansat,1622290292023540545,1,0,10,0,40.82,101526.44,27.64,0,0,1.953146,2.343601,2.409577,2.398505,2.407729,27.4798,0.300903,0.407923,0.363714,0.400555,490,0.573059
cansat,1622290293023412159,1,0,9,0,40.82,101523.28,27.65,0,0,1.880028,2.255809,2.319268,2.308619,2.31749,27.775686,0.289626,0.392564,0.350047,0.385478,491,0.573058
cansat,1622290294023524710,1,0,9,0,40.82,101518.2,27.66,0,0,1.802006,2.16214,2.222924,2.212724,2.221221,27.304373,0.277595,0.376193,0.335474,0.369406,492,0.573059
cansat,1622290295023192679,1,0,9,0,40.83,101522.15,27.67,0,0,1.720793,2.064648,2.122655,2.112922,2.12103,27.304373,0.265075,0.359165,0.320312,0.35269,493,0.573058
cansat,1622290296023356272,1,0,10,0,40.83,101522.19,27.67,0,0,1.726543,2.07147,2.129611,2.119856,2.127981,27.4798,0.265944,0.360249,0.321315,0.35376,494,0.574161
cansat,1622290297023082105,1,0,9,0,40.83,101522.97,27.68,0,0,1.713947,2.056286,2.113945,2.104271,2.112329,27.597624,0.263988,0.35751,0.318907,0.351076,495,0.574161
cansat,1622290298023121115,1,0,9,0,40.83,101520.63,27.69,0,0,1.775285,2.129839,2.189533,2.179518,2.18786,27.304373,0.273428,0.370249,0.330287,0.363589,496,0.574068
cansat,1622290299023230802,1,0,9,0,40.84,101521.16,27.7,0,0,1.807224,2.168122,2.228862,2.218672,2.227159,27.304373,0.27834,0.376856,0.336198,0.37008,497,0.574068
cansat,1622290300022882521,1,0,9,0,40.83,101521.29,27.7,0,0,1.81503,2.177453,2.238427,2.228198,2.236718,27.362676,0.279535,0.378432,0.33762,0.37163,498,0.574068
cansat,1622290301023067833,1,0,9,0,40.84,101521.27,27.71,0,0,1.803207,2.163238,2.22379,2.213631,2.222092,27.4798,0.277707,0.375919,0.335393,0.369164,499,0.574068
cansat,1622290302023039916,1,0,9,0,40.84,101519.17,27.72,0,0,1.775603,2.130093,2.189694,2.179696,2.188023,27.775686,0.27345,0.370118,0.330232,0.36347,500,0.574068
cansat,1622290303023209342,1,0,10,0,40.84,101519.02,27.72,0,0,1.735492,2.081945,2.140178,2.13041,2.138546,27.597624,0.267267,0.361715,0.322748,0.35522,501,0.574068
cansat,1622290304023872727,1,0,9,0,40.84,101520.48,27.73,0,0,1.730033,2.075351,2.133365,2.123633,2.131738,27.538624,0.266416,0.360507,0.321692,0.354038,502,0.574766
cansat,1622290305023819810,1,0,9,0,40.85,101523.22,27.74,0,0,1.708318,2.049258,2.10651,2.096906,2.104904,27.304373,0.263063,0.355917,0.317616,0.349533,503,0.574766
cansat,1622290306023733716,1,0,9,0,40.84,101523.76,27.74,0,0,1.673651,2.007633,2.063691,2.054288,2.062118,27.4798,0.257716,0.348633,0.311135,0.342383,504,0.574766
cansat,1622290307023573508,1,0,9,0,40.84,101523,27.75,0,0,1.628839,1.953841,2.008369,1.999223,2.006839,27.538624,0.250808,0.339242,0.302772,0.333163,505,0.574766
cansat,1622290308023601788,0,0,9,0,40.84,101517.73,27.76,0,0,1.620634,1.943954,1.998171,1.989078,1.99665,27.362676,0.249535,0.337464,0.301207,0.331421,506,0.575174
cansat,1622290309023530382,1,0,9,0,40.84,101523.04,27.77,0,0,1.597789,1.916509,1.969928,1.960968,1.968429,27.6568,0.246008,0.332642,0.296923,0.326689,507,0.575174
cansat,1622290310022599808,1,0,9,0,40.85,101521.51,27.77,0,0,1.563311,1.875115,1.92735,1.918589,1.925884,27.597624,0.240692,0.325404,0.290481,0.319583,508,0.575174
cansat,1622290311022868766,1,0,9,0,40.84,101522.37,27.78,0,0,1.519756,1.822836,1.873586,1.865075,1.872162,27.716154,0.233978,0.316282,0.282356,0.310627,509,0.575174
cansat,1622290312022957047,1,0,10,0,40.84,101521.46,27.79,0,0,1.469282,1.762263,1.811301,1.803077,1.809925,27.716154,0.2262,0.305726,0.272948,0.300263,510,0.575174
cansat,1622290313022965953,1,0,9,0,40.84,101516.88,27.79,0,0,1.413709,1.695577,1.742737,1.734828,1.741413,27.362676,0.217638,0.294116,0.262597,0.288863,511,0.575174
cansat,1622290314022071161,1,0,9,0,40.84,101514.98,27.81,0,0,1.35456,1.624607,1.669771,1.662197,1.668504,27.6568,0.208526,0.281768,0.251586,0.276737,512,0.575174
cansat,1622290315021949025,1,0,9,0,40.84,101517.18,27.81,0,0,1.293106,1.550876,1.593971,1.586744,1.592761,27.6568,0.19906,0.268945,0.240149,0.264146,513,0.575174
cansat,1622290316022736837,1,0,9,0,40.84,101514.39,27.82,0,0,1.274737,1.528853,1.571341,1.564216,1.570149,27.597624,0.196234,0.265136,0.236744,0.260404,514,0.576129
cansat,1622290317023630743,1,0,9,0,40.84,101518.76,27.83,0,0,1.24711,1.495725,1.537298,1.530326,1.536131,27.716154,0.191983,0.2594,0.231619,0.25477,515,0.576128
cansat,1622290318023261264,0,0,10,0,40.84,101520.13,27.84,0,0,1.21226,1.453934,1.49435,1.487573,1.493216,27.246242,0.186619,0.252161,0.225152,0.24766,516,0.576128
cansat,1622290319022190795,1,0,9,0,40.84,101519.32,27.84,0,0,1.171908,1.405544,1.444619,1.438067,1.443523,27.4798,0.180408,0.243777,0.217663,0.239424,517,0.576128
cansat,1622290320026975117,1,0,9,0,40.84,101520.07,27.85,0,0,1.127504,1.352292,1.389891,1.383586,1.388836,27.362676,0.173574,0.234548,0.20942,0.23036,518,0.576128
cansat,1622290321022207721,1,0,10,0,40.84,101519.46,27.86,0,0,1.080261,1.295635,1.331663,1.325621,1.330652,27.421151,0.166302,0.224727,0.20065,0.220714,519,0.576128
cansat,1622290322022345950,1,0,9,0,40.84,101520.95,27.86,0,0,1.119912,1.343216,1.380586,1.374319,1.379538,27.421151,0.172411,0.233014,0.208037,0.228851,520,0.577496
cansat,1622290323022321054,1,0,9,0,40.83,101518.8,27.87,0,0,1.140825,1.368323,1.40641,1.400023,1.405341,27.362676,0.175636,0.237402,0.211943,0.233159,521,0.577496
cansat,1622290324023059855,0,0,9,0,40.84,101518.77,27.87,0,0,1.146351,1.374975,1.413265,1.406843,1.41219,27.597624,0.176492,0.238588,0.21299,0.234321,522,0.577496
cansat,1622290325022565167,1,1,9,0,40.83,101517.39,27.88,0,0,1.183736,1.419832,1.459384,1.45275,1.458274,27.362676,0.182251,0.246394,0.219951,0.241987,523,0.576439
cansat,1622290326022511573,1,0,10,0,40.83,101518.31,27.89,0,0,1.290928,1.548407,1.591544,1.584309,1.590334,27.597624,0.198756,0.268712,0.239872,0.263906,524,0.574338
cansat,1622290327023651312,1,0,9,0,40.82,101516.38,27.89,0,0,1.364842,1.637069,1.682679,1.675029,1.681399,27.775686,0.210137,0.284105,0.25361,0.279022,525,0.574338
cansat,1622290328024049802,1,0,9,0,40.82,101516.1,27.9,0,0,1.411064,1.692513,1.739671,1.731762,1.738348,27.597624,0.217254,0.293732,0.262203,0.288477,526,0.574338
cansat,1622290329027191937,1,0,9,0,40.82,101519.54,27.91,0,0,1.434391,1.720498,1.768439,1.760399,1.767094,27.775686,0.220846,0.298595,0.266541,0.293252,527,0.574338
cansat,1622290330023388915,1,0,9,0,40.82,101515.92,27.91,0,0,1.438942,1.725961,1.774057,1.76599,1.772707,27.6568,0.221548,0.299548,0.26739,0.294188,528,0.574338
cansat,1622290331022796415,1,0,9,0,40.81,101518.59,27.92,0,0,1.428238,1.713126,1.760866,1.75286,1.759527,27.597624,0.219901,0.297325,0.265404,0.292005,529,0.574338
cansat,1622290332023684436,0,0,10,0,40.81,101519.64,27.93,0,0,1.449611,1.7388,1.787286,1.779154,1.785926,27.716154,0.2232,0.301834,0.26941,0.29643,530,0.575295
cansat,1622290333022694539,1,0,9,0,40.81,101517.33,27.93,0,0,1.496794,1.795426,1.845515,1.837113,1.84411,27.4798,0.230471,0.311705,0.278207,0.306122,531,0.574245
cansat,1622290334023615528,1,0,9,0,40.81,101518.89,27.94,0,0,1.520037,1.823336,1.874226,1.86569,1.872799,27.4798,0.234056,0.316591,0.282553,0.310918,532,0.574245
cansat,1622290335023097351,1,0,9,0,40.81,101519.66,27.95,0,0,1.523658,1.827708,1.878742,1.870182,1.877311,27.895292,0.23462,0.317388,0.283251,0.311698,533,0.574245
cansat,1622290336023011778,1,0,9,0,40.8,101516.94,27.96,0,0,1.51135,1.812971,1.863613,1.855119,1.862193,27.775686,0.23273,0.314865,0.280987,0.309218,534,0.574245
cansat,1622290337022734850,1,0,9,0,40.8,101516.23,27.97,0,0,1.486264,1.782902,1.832724,1.824367,1.831327,27.775686,0.228872,0.309676,0.276345,0.304121,535,0.574245
cansat,1622290338022582610,1,0,9,0,40.8,101516.07,27.97,0,0,1.451078,1.740717,1.789378,1.781215,1.788013,27.304373,0.223459,0.30238,0.269823,0.296954,536,0.574245
cansat,1622290339022495162,1,0,9,0,40.8,101516.69,27.98,0,0,1.408064,1.689139,1.736374,1.72845,1.735049,27.775686,0.21684,0.293449,0.261843,0.288182,537,0.574245
cansat,1622290340021958807,0,0,9,0,40.79,101518.28,27.99,0,0,1.403507,1.683686,1.730778,1.722878,1.729458,27.597624,0.216141,0.29252,0.261008,0.287268,538,0.573199
